wid,response_type,raw_rt,first_pres_time,second_pres_time,third_pres_time,last_pres_time,choose_first,n_pres,total_first,total_second,rt,trial_id,pretest_accuracy_first,strength_first,pretest_accuracy_second,strength_second
w91a24bf,correct,3935.265000007348,1079.9450000049546,743.3000000019092,1176.0150000045542,1176.0150000045542,TRUE,3,2255.960000009509,743.3000000019092,2999.260000011418,1,1,0.9937095969294195,0,-1.020353670133421
w91a24bf,other,3295.2299999888055,527.0099999906961,1728.2499999855645,NA,1728.2499999855645,FALSE,2,527.0099999906961,1728.2499999855645,2255.2599999762606,2,0,-1.020353670133421,0,-1.020353670133421
w91a24bf,other,4991.910000011558,551.7800000088755,3240.3599999961443,NA,3240.3599999961443,FALSE,2,551.7800000088755,3240.3599999961443,3792.14000000502,3,0,-1.020353670133421,0,-1.020353670133421
w91a24bf,correct,2407.7999999863096,487.54500001086853,1200.104999996256,NA,1200.104999996256,FALSE,2,487.54500001086853,1200.104999996256,1687.6500000071246,4,0,-1.020353670133421,1,1.082104243516483
w91a24bf,correct,2655.429999984335,607.2749999875668,304.01000002166256,1009.1200000024401,1009.1200000024401,TRUE,3,1616.394999990007,304.01000002166256,1920.4050000116695,5,1,1.2043115974452108,1,0.7558063054135262
w91a24bf,correct,2647.3800000094343,607.3600000236183,263.98499999777414,1175.9999999776483,1175.9999999776483,TRUE,3,1783.3600000012666,263.98499999777414,2047.3449999990407,6,1,0.9356506835461798,1,0.8350281464795226
w91a24bf,correct,2463.2500000006985,535.1899999950547,1104.0199999988545,NA,1104.0199999988545,FALSE,2,535.1899999950547,1104.0199999988545,1639.2099999939092,7,0,-1.020353670133421,1,1.0688799112683764
w91a24bf,correct,2407.8499999886844,559.4449999916833,624.0000000107102,720.1199999835808,720.1199999835808,TRUE,3,1279.564999975264,624.0000000107102,1903.5649999859743,8,1,0.7461161523885119,0,-1.020353670133421
w91a24bf,correct,1959.370000025956,511.27500002621673,256.264999974519,719.8850000277162,719.8850000277162,TRUE,3,1231.160000053933,256.264999974519,1487.425000028452,9,1,0.8500031870440019,1,1.2611412415316443
w91a24bf,correct,2287.3299999919254,511.5349999978207,1232.0900000049733,NA,1232.0900000049733,FALSE,2,511.5349999978207,1232.0900000049733,1743.625000002794,10,0,-1.020353670133421,1,0.9583615137957231
w91a24bf,empty,3759.4150000077207,543.680000002496,1151.834999996936,NA,1151.834999996936,FALSE,2,543.680000002496,1151.834999996936,1695.514999999432,11,0,-1.020353670133421,0,-1.020353670133421
w91a24bf,correct,2623.985000012908,809.5350000075996,638.2600000069942,880.2900000009686,880.2900000009686,TRUE,3,1689.8250000085682,638.2600000069942,2328.0850000155624,12,1,0.8109172474940567,0,-1.020353670133421
w91a24bf,correct,2855.455000011716,399.20000001438893,1288.0949999962468,NA,1288.0949999962468,FALSE,2,399.20000001438893,1288.0949999962468,1687.2950000106357,13,0,-1.020353670133421,1,0.6405805421847057
w91a24bf,correct,1991.7500000155997,447.61999999172986,744.4300000206567,NA,744.4300000206567,FALSE,2,447.61999999172986,744.4300000206567,1192.0500000123866,14,0,-1.020353670133421,1,1.1360795990157058
w91a24bf,correct,2343.6600000131875,527.330000011716,304.03499997919425,423.95500000566244,664.0650000190362,FALSE,4,951.2850000173785,968.0999999982305,1919.385000015609,15,1,1.0067470687258733,1,1.0840834599501683
w91a24bf,intrusion,3375.260000000708,446.974999998929,1896.1200000194367,NA,1896.1200000194367,FALSE,2,446.974999998929,1896.1200000194367,2343.0950000183657,16,0,-1.020353670133421,0,-1.020353670133421
w91a24bf,correct,1855.5599999963304,294.98000000603497,360.50999999861233,648.0450000090059,648.0450000090059,TRUE,3,943.0250000150409,360.50999999861233,1303.5350000136532,17,1,1.0992659511498364,0,-1.020353670133421
w91a24bf,timeout,NA,599.1700000013225,752.005000016652,999.9899999820627,999.9899999820627,NA,3,1599.1599999833852,752.005000016652,2351.1650000000373,18,1,0.0317566668432754,0,-1.020353670133421
w91a24bf,correct,2911.0899999795947,895.1949999900535,1744.1249999974389,NA,1744.1249999974389,FALSE,2,895.1949999900535,1744.1249999974389,2639.3199999874923,19,1,0.9700552800506951,1,0.9282390232343611
wf4da727,correct,3983.700000047684,783.8999998569489,622.1000001430511,1381.2000000476837,1381.2000000476837,TRUE,3,2165.0999999046326,622.1000001430511,2787.2000000476837,20,1,0.30648085506161077,1,-0.16080242507676304
wf4da727,correct,3573.100000143051,690.2000000476837,1901.7000000476837,NA,1901.7000000476837,FALSE,2,690.2000000476837,1901.7000000476837,2591.9000000953674,21,0,-3.284544455059542,1,-0.4441698696274498
wf4da727,correct,4027.199999809265,680.0999999046326,2670.2000000476837,NA,2670.2000000476837,FALSE,2,680.0999999046326,2670.2000000476837,3350.2999999523163,22,1,0.07958984309172,1,0.2031886983524222
wf4da727,correct,3775.399999856949,880.5999999046326,1929.7000000476837,NA,1929.7000000476837,FALSE,2,880.5999999046326,1929.7000000476837,2810.2999999523163,23,1,-0.08257097219790543,1,0.4032615320606887
wf4da727,correct,3224.7999999523163,717.0999999046326,1934.1000001430511,NA,1934.1000001430511,FALSE,2,717.0999999046326,1934.1000001430511,2651.2000000476837,24,1,0.3322109433126901,1,0.2986136322619643
wf4da727,correct,3795.899999856949,698.6999998092651,546,1933.8000001907349,1933.8000001907349,TRUE,3,2632.5,546,3178.5,25,1,0.4582064160597507,1,0.7090958218091437
wf4da727,correct,5039.799999952316,689.0999999046326,689.4000000953674,1560.5,1258.5,FALSE,4,2249.5999999046326,1947.9000000953674,4197.5,26,1,0.4717118293626408,1,0.2798831337502866
wf4da727,correct,4032.299999952316,905.5,672.0999999046326,1112.2000000476837,1112.2000000476837,TRUE,3,2017.7000000476837,672.0999999046326,2689.7999999523163,27,1,0.06699736352451219,1,0.40203022947247674
wf4da727,correct,3119.099999904633,698,636.1999998092651,438.90000009536743,850.7000000476837,FALSE,4,1136.9000000953674,1486.8999998569489,2623.7999999523163,28,1,-0.23067383528738072,1,0.5415702507991044
wf4da727,correct,3325.2000000476837,616.7000000476837,1541.2000000476837,NA,1541.2000000476837,FALSE,2,616.7000000476837,1541.2000000476837,2157.9000000953674,29,1,0.14942579143434948,1,0.26387183668418784
wf4da727,correct,3673.799999952316,800.2000000476837,2567.9000000953674,NA,2567.9000000953674,FALSE,2,800.2000000476837,2567.9000000953674,3368.100000143051,30,1,-0.7526251747017244,1,0.3740623031975307
wf4da727,correct,3179.399999856949,601.6999998092651,538.6000001430511,1434.2000000476837,1434.2000000476837,TRUE,3,2035.8999998569489,538.6000001430511,2574.5,31,1,0.7021202620042681,1,0.8002857745925163
wf4da727,correct,2752.5,615.6000001430511,651.0999999046326,975.7000000476837,975.7000000476837,TRUE,3,1591.3000001907349,651.0999999046326,2242.4000000953674,32,1,0.32189803055075644,1,0.3465143200816028
wf4da727,correct,2868.900000095367,642.5,1496.7000000476837,NA,1496.7000000476837,FALSE,2,642.5,1496.7000000476837,2139.2000000476837,33,0,-3.284544455059542,1,0.48750672155436003
wf4da727,correct,3466.2000000476837,749.7000000476837,2310.4000000953674,NA,2310.4000000953674,FALSE,2,749.7000000476837,2310.4000000953674,3060.100000143051,34,1,0.547607037806744,1,0.49259977847320346
wf4da727,correct,3148.899999856949,565.7999999523163,1901.0999999046326,NA,1901.0999999046326,FALSE,2,565.7999999523163,1901.0999999046326,2466.899999856949,35,1,0.17498814933876225,1,0.3206253585168604
wf4da727,correct,3178.400000095367,576.5999999046326,650.1000001430511,1689.0999999046326,1689.0999999046326,TRUE,3,2265.699999809265,650.1000001430511,2915.7999999523163,36,1,-0.30479466029812163,1,0.022337769951576845
wf4da727,correct,2693.7999999523163,556.7999999523163,758.4000000953674,843.2000000476837,843.2000000476837,TRUE,3,1400,758.4000000953674,2158.4000000953674,37,1,0.664729255708157,1,0.29420636336933786
wf4da727,correct,2858.800000190735,601.4000000953674,1545.7999999523163,NA,1545.7999999523163,FALSE,2,601.4000000953674,1545.7999999523163,2147.2000000476837,38,1,0.4281609186369741,1,0.6763557186223971
we986a69,correct,4385.700000047684,1316.3999999761581,1833.9000000953674,NA,1833.9000000953674,FALSE,2,1316.3999999761581,1833.9000000953674,3150.3000000715256,39,0,-0.9017812723352309,1,1.2274080528597409
we986a69,other,5665.899999976158,600,1108.1000000238419,2297.100000023842,2297.100000023842,TRUE,3,2897.100000023842,1108.1000000238419,4005.2000000476837,40,0,-0.9017812723352309,0,-0.9017812723352309
we986a69,correct,2469.900000095367,2086.8000000715256,NA,NA,2086.8000000715256,TRUE,1,2086.8000000715256,0,2086.8000000715256,41,1,1.067213492661628,1,1.6447044267800386
we986a69,correct,2150.599999904633,1706.2999999523163,NA,NA,1706.2999999523163,TRUE,1,1706.2999999523163,0,1706.2999999523163,42,1,0.7806894979052952,1,0.9136960445179285
we986a69,other,3558.900000095367,746.4000000953674,2035.0999999046326,NA,2035.0999999046326,FALSE,2,746.4000000953674,2035.0999999046326,2781.5,43,0,-0.9017812723352309,0,-0.9017812723352309
we986a69,other,6740.400000095367,1009.6000000238419,592.2000000476837,4079.5,4079.5,TRUE,3,5089.100000023842,592.2000000476837,5681.300000071526,44,0,-0.9017812723352309,0,-0.9017812723352309
we986a69,correct,2200.400000095367,1373,NA,NA,1373,TRUE,1,1373,0,1373,45,1,1.3444436280563454,0,-0.9017812723352309
we986a69,correct,4435.600000023842,1638,235.10000002384186,506.3000000715256,1468.0999999046326,FALSE,4,2144.3000000715256,1703.1999999284744,3847.5,46,1,0.7723306193772329,1,0.6107338602437393
we986a69,other,3374.7999999523163,1183.1000000238419,677.1999999284744,760.8999999761581,760.8999999761581,TRUE,3,1944,677.1999999284744,2621.1999999284744,47,0,-0.9017812723352309,0,-0.9017812723352309
we986a69,other,3339.2999999523163,775.2999999523163,2366.4000000953674,NA,2366.4000000953674,FALSE,2,775.2999999523163,2366.4000000953674,3141.7000000476837,48,0,-0.9017812723352309,0,-0.9017812723352309
we986a69,correct,3282.399999976158,929.5,1931.6000000238419,NA,1931.6000000238419,FALSE,2,929.5,1931.6000000238419,2861.100000023842,49,0,-0.9017812723352309,1,1.565190588362166
we986a69,correct,2934,2091.399999976158,NA,NA,2091.399999976158,TRUE,1,2091.399999976158,0,2091.399999976158,50,1,1.059258792948367,1,1.1423265499440456
we986a69,correct,2824.899999976158,1133.1999999284744,1320.4000000953674,NA,1320.4000000953674,FALSE,2,1133.1999999284744,1320.4000000953674,2453.600000023842,51,0.5,-0.18922902387830734,1,1.3006985429870352
we986a69,other,4026.200000047684,688.8999999761581,2659,NA,2659,FALSE,2,688.8999999761581,2659,3347.899999976158,52,0,-0.9017812723352309,0,-0.9017812723352309
we986a69,correct,2436.7000000476837,664.2000000476837,1588.1000000238419,NA,1588.1000000238419,FALSE,2,664.2000000476837,1588.1000000238419,2252.3000000715256,53,0,-0.9017812723352309,1,0.6692074417247235
we986a69,intrusion,4738.399999976158,738.6999999284744,3147.100000023842,NA,3147.100000023842,FALSE,2,738.6999999284744,3147.100000023842,3885.7999999523163,54,0,-0.9017812723352309,0,-0.9017812723352309
we986a69,correct,4328,791.3999999761581,543.5,1319.5,1105.8000000715256,TRUE,5,3216.7000000476837,830,4046.7000000476837,55,1,1.2298350993085794,0,-0.9017812723352309
we986a69,correct,1763.100000023842,1564.7999999523163,NA,NA,1564.7999999523163,TRUE,1,1564.7999999523163,0,1564.7999999523163,56,1,1.2181681492570566,1,0.7054415530914401
we986a69,correct,2739.7000000476837,940.7000000476837,1484.2000000476837,NA,1484.2000000476837,FALSE,2,940.7000000476837,1484.2000000476837,2424.9000000953674,57,0,-0.9017812723352309,1,0.7858501162957802
w4cb2435,correct,5516.399999856949,1150.3999998569489,1245.6000001430511,990.2000000476837,914,TRUE,5,3054.5999999046326,1880,4934.599999904633,58,1,1.2368810378334185,1,0.8878926929908992
w4cb2435,correct,5167.600000143051,1247.6000001430511,1122.6999998092651,1901.6000001430511,1901.6000001430511,TRUE,3,3149.2000002861023,1122.6999998092651,4271.900000095367,59,1,0.8457079429947844,1,0.5526982033458149
w4cb2435,correct,4623.5,763.2000000476837,1283.3999998569489,520.7000000476837,1033.5,FALSE,4,1283.9000000953674,2316.899999856949,3600.7999999523163,60,0,-0.9471612752234295,1,1.0693941336702948
w4cb2435,timeout,NA,835.7999999523163,841.7000000476837,6951.700000047684,802.4000000953674,NA,7,9598.400000095367,3456.899999856949,13055.299999952316,61,0,-0.9471612752234295,0,-0.9471612752234295
w4cb2435,correct,4630.799999952316,1228.5,1282.3999998569489,175.20000004768372,1144.7999999523163,FALSE,4,1403.7000000476837,2427.199999809265,3830.899999856949,62,0,-0.9471612752234295,1,1.2802047904619913
w4cb2435,correct,3297.5,944.7999999523163,879.5,469.09999990463257,296.40000009536743,FALSE,4,1413.8999998569489,1175.9000000953674,2589.7999999523163,63,0,-0.9471612752234295,1,1.4200487391770131
w4cb2435,correct,4135.199999809265,858.1999998092651,873.3000001907349,1548.2999999523163,1548.2999999523163,TRUE,3,2406.4999997615814,873.3000001907349,3279.7999999523163,64,1,1.233670851512111,0,-0.9471612752234295
w4cb2435,empty,11042.5,700.2000000476837,2030.9000000953674,1649.2999999523163,1229.5999999046326,FALSE,4,2349.5,3260.5,5610,65,0,-0.9471612752234295,0,-0.9471612752234295
w4cb2435,correct,3143.7999999523163,845.3999998569489,839.9000000953674,528.9000000953674,528.9000000953674,TRUE,3,1374.2999999523163,839.9000000953674,2214.2000000476837,66,1,1.434322841387148,0,-0.9471612752234295
w4cb2435,correct,3047,767.6999998092651,1538.9000000953674,NA,1538.9000000953674,FALSE,2,767.6999998092651,1538.9000000953674,2306.5999999046326,67,0,-0.9471612752234295,1,0.7717364235855141
w4cb2435,empty,5604.100000143051,748.2000000476837,1064,1766,1691.4000000953674,FALSE,4,2514.2000000476837,2755.4000000953674,5269.600000143051,68,0,-0.9471612752234295,0,-0.9471612752234295
w4cb2435,correct,3363.599999904633,718.7999999523163,1993.7999999523163,NA,1993.7999999523163,FALSE,2,718.7999999523163,1993.7999999523163,2712.5999999046326,69,0,-0.9471612752234295,1,1.1007378861271477
w4cb2435,correct,3089,770,1902.5,NA,1902.5,FALSE,2,770,1902.5,2672.5,70,0,-0.9471612752234295,1,0.7099068723303533
w4cb2435,correct,2977.199999809265,762.5,1545.2999999523163,NA,1545.2999999523163,FALSE,2,762.5,1545.2999999523163,2307.7999999523163,71,0,-0.9471612752234295,1,1.2625889838137059
w4cb2435,correct,5266.200000047684,681.2999999523163,2069.9000000953674,621.5999999046326,1258.4000000953674,FALSE,4,1302.8999998569489,3328.300000190735,4631.200000047684,72,1,1.0654580222110577,1,1.1165152700575
w4cb2435,empty,6243.400000095367,1160,1567.6000001430511,1775.0999999046326,1366.5,FALSE,4,2935.0999999046326,2934.100000143051,5869.200000047684,73,0,-0.9471612752234295,0,-0.9471612752234295
w4cb2435,correct,3425.199999809265,1032.7999999523163,704.2000000476837,962.5,962.5,TRUE,3,1995.2999999523163,704.2000000476837,2699.5,74,1,0.9504425725333772,1,0.9399651020861406
w4cb2435,other,5077.5,672.9000000953674,3635.2000000476837,NA,3635.2000000476837,FALSE,2,672.9000000953674,3635.2000000476837,4308.100000143051,75,1,1.1245656616312902,0.5,-0.02299033904873559
w4cb2435,empty,8645.200000047684,620,3722.2000000476837,1691.7999999523163,2376.7000000476837,FALSE,4,2311.7999999523163,6098.900000095367,8410.700000047684,76,0,-0.9471612752234295,0,-0.9471612752234295
wd95d41e,correct,3231.0999999940395,875.2999999821186,1594.9000000059605,NA,1594.9000000059605,FALSE,2,875.2999999821186,1594.9000000059605,2470.199999988079,77,1,-0.2064524760838212,1,1.0970281617747712
wd95d41e,empty,NA,NA,NA,NA,NA,NA,0,0,0,0,78,NA,NA,NA,NA
wd95d41e,correct,2781.0999999940395,734.8000000119209,1500.5999999940395,NA,1500.5999999940395,FALSE,2,734.8000000119209,1500.5999999940395,2235.4000000059605,79,0,-1.2531743252547531,1,1.2215328520469382
wd95d41e,correct,3851.5,1305.0999999940395,1815.7999999821186,NA,1815.7999999821186,FALSE,2,1305.0999999940395,1815.7999999821186,3120.899999976158,80,1,0.669192212675379,1,1.053138635586361
wd95d41e,correct,2610.7999999821186,744.6999999880791,650.3000000119209,874.6999999880791,874.6999999880791,TRUE,3,1619.3999999761581,650.3000000119209,2269.699999988079,81,1,1.2370442119170053,1,0.7555048338957474
wd95d41e,correct,9258.80000001192,845,1640.300000011921,4092.300000011921,2056.199999988079,FALSE,4,4937.300000011921,3696.5,8633.800000011921,82,1,1.0678185972498384,1,0.20376800220435567
wd95d41e,correct,4685.9000000059605,1715,2330.7000000178814,NA,2330.7000000178814,FALSE,2,1715,2330.7000000178814,4045.7000000178814,83,1,0.6485992102944931,1,0.4241530902613698
wd95d41e,correct,3560.2999999821186,774.0999999940395,1715.699999988079,NA,1715.699999988079,FALSE,2,774.0999999940395,1715.699999988079,2489.7999999821186,84,1,1.1187071947860239,1,0.9478509078990957
wd95d41e,correct,4040.800000011921,1929.5999999940395,1596.300000011921,NA,1596.300000011921,FALSE,2,1929.5999999940395,1596.300000011921,3525.9000000059605,85,0.5,-0.17496001547460274,1,1.0367915074249618
wd95d41e,empty,3601.0999999940395,714.5999999940395,769.6999999880791,1862,1862,TRUE,3,2576.5999999940395,769.6999999880791,3346.2999999821186,86,0,-1.2531743252547531,0,-1.2531743252547531
wd95d41e,other,5236.0999999940395,624.5,1231,3061.199999988079,3061.199999988079,TRUE,3,3685.699999988079,1231,4916.699999988079,87,0,-1.2531743252547531,0,-1.2531743252547531
wd95d41e,correct,9563.09999999404,4967.399999976158,4165.5,NA,4165.5,FALSE,2,4967.399999976158,4165.5,9132.899999976158,88,0,-1.2531743252547531,1,0.2420979039328857
wd95d41e,correct,3299.5,582.6999999880791,1731.5999999940395,NA,1731.5999999940395,FALSE,2,582.6999999880791,1731.5999999940395,2314.2999999821186,89,0,-1.2531743252547531,1,-0.08390456013776396
wd95d41e,correct,2290.2000000178814,669.7000000178814,1284.7999999821186,NA,1284.7999999821186,FALSE,2,669.7000000178814,1284.7999999821186,1954.5,90,0,-1.2531743252547531,1,1.0075528201810078
wd95d41e,correct,3745.7000000178814,894.2000000178814,500.09999999403954,1616.9000000059605,1616.9000000059605,TRUE,3,2511.100000023842,500.09999999403954,3011.2000000178814,91,1,0.7956148856594877,1,0.5502712634841767
wd95d41e,correct,3054.7000000178814,1224.9000000059605,620.3000000119209,814.8999999761581,814.8999999761581,TRUE,3,2039.7999999821186,620.3000000119209,2660.0999999940395,92,1,0.7943350141227501,0,-1.2531743252547531
wd95d41e,correct,3185.4000000059605,654.7000000178814,616.5999999940395,1334.5999999940395,1334.5999999940395,TRUE,3,1989.300000011921,616.5999999940395,2605.9000000059605,93,0.5,-0.19745832444795033,0,-1.2531743252547531
wd95d41e,correct,4066.400000005961,1690.800000011921,2080.699999988079,NA,2080.699999988079,FALSE,2,1690.800000011921,2080.699999988079,3771.5,94,1,0.6513720167507137,1,0.6999186836527774
wd95d41e,correct,2515.4000000059605,745.5999999940395,1524.7000000178814,NA,1524.7000000178814,FALSE,2,745.5999999940395,1524.7000000178814,2270.300000011921,95,0,-1.2531743252547531,1,0.9253413479599711
w56b1eee,correct,5808.199999988079,4519.399999976158,NA,NA,4519.399999976158,TRUE,1,4519.399999976158,0,4519.399999976158,96,1,0.1464161738445418,1,0.7342375311852927
w56b1eee,correct,2391.300000011921,1647.4000000357628,NA,NA,1647.4000000357628,TRUE,1,1647.4000000357628,0,1647.4000000357628,97,1,0.3831223145045383,1,0.2955620682105878
w56b1eee,correct,1727.800000011921,1391.5999999642372,NA,NA,1391.5999999642372,TRUE,1,1391.5999999642372,0,1391.5999999642372,98,1,0.37251284316414274,1,-0.08976920408717359
w56b1eee,correct,5831.800000011921,1583.6000000238419,2735.899999976158,NA,2735.899999976158,FALSE,2,1583.6000000238419,2735.899999976158,4319.5,99,0,-3.0016515803628536,1,0.19415147397034033
w56b1eee,correct,3327.399999976158,807.5,2136,NA,2136,FALSE,2,807.5,2136,2943.5,100,1,0.49281213274223395,1,0.6048805759054121
w56b1eee,intrusion,2391.600000023842,2015.5,NA,NA,2015.5,TRUE,1,2015.5,0,2015.5,101,0.5,-1.276334015457049,1,0.4981672520029521
w56b1eee,correct,3767.5,1263.4000000357628,1975.8999999761581,NA,1975.8999999761581,FALSE,2,1263.4000000357628,1975.8999999761581,3239.300000011921,102,1,0.3988200344862787,1,0.4831755434634724
w56b1eee,correct,2367.600000023842,1719.5,NA,NA,1719.5,TRUE,1,1719.5,0,1719.5,103,1,0.5847453230761324,1,0.5527023797437933
w56b1eee,correct,2007.399999976158,1519.3999999761581,NA,NA,1519.3999999761581,TRUE,1,1519.3999999761581,0,1519.3999999761581,104,1,0.5699105870886512,1,0.31554537423765416
w56b1eee,correct,1871.899999976158,1367.5999999642372,NA,NA,1367.5999999642372,TRUE,1,1367.5999999642372,0,1367.5999999642372,105,1,0.5433943747426094,1,0.3238491510181089
w56b1eee,correct,3495.800000011921,1423.800000011921,1488,NA,1488,FALSE,2,1423.800000011921,1488,2911.800000011921,106,1,-0.2527258077901995,1,0.5631481718083453
w56b1eee,correct,3815.300000011921,911.3000000119209,775.8999999761581,1960.800000011921,1960.800000011921,TRUE,3,2872.100000023842,775.8999999761581,3648,107,1,0.32883662186119966,0,-3.0016515803628536
w56b1eee,correct,1782.300000011921,1430.300000011921,NA,NA,1430.300000011921,TRUE,1,1430.300000011921,0,1430.300000011921,108,1,-0.08247971622049714,1,0.5968887685797312
w56b1eee,correct,2095,1463,NA,NA,1463,TRUE,1,1463,0,1463,109,1,0.2120368918159232,1,0.40025438109420414
w56b1eee,correct,1752.399999976158,1287.5999999642372,NA,NA,1287.5999999642372,TRUE,1,1287.5999999642372,0,1287.5999999642372,110,1,0.4652287256739179,0,-3.0016515803628536
w56b1eee,correct,1695.5,1319.5,NA,NA,1319.5,TRUE,1,1319.5,0,1319.5,111,1,0.5891721942473043,1,-0.5959129616835005
w56b1eee,correct,3167.7999999523163,1479.7999999523163,1159.9000000357628,NA,1159.9000000357628,FALSE,2,1479.7999999523163,1159.9000000357628,2639.699999988079,112,0.5,-1.8795060358866384,1,0.42500121337479746
w56b1eee,correct,1999.7999999523165,1447.8999999761581,NA,NA,1447.8999999761581,TRUE,1,1447.8999999761581,0,1447.8999999761581,113,1,0.3856601613502374,1,0.11256682773758617
w56b1eee,correct,1647.699999988079,1119.699999988079,NA,NA,1119.699999988079,TRUE,1,1119.699999988079,0,1119.699999988079,114,1,0.5952046848287491,1,0.12619695336930764
w7569874,correct,3555,1165,1993,NA,1993,FALSE,2,1165,1993,3158,115,1,0.2252900275931737,1,0.5311568424690762
w7569874,correct,2733,644,1758,NA,1758,TRUE,2,644,1758,2402,116,1,0.24932210007144037,1,0.6074155229507437
w7569874,correct,1484,701,483,NA,483,TRUE,2,701,483,1184,117,1,0.6000151344885,1,0.03853000441730164
w7569874,correct,1800,1423,NA,NA,1423,TRUE,1,1423,0,1423,118,1,0.5433117482871646,1,0.4181001857854827
w7569874,correct,1413,1120,NA,NA,1120,TRUE,1,1120,0,1120,119,1,0.3046292452825154,1,0.46801011408821497
w7569874,correct,2442,615,1340,NA,1340,FALSE,2,615,1340,1955,120,0,-2.62516566031273,1,-0.3957472280847181
w7569874,correct,1500,1173,NA,NA,1173,TRUE,1,1173,0,1173,121,1,0.5142689051042479,1,0.44583201756608276
w7569874,correct,1605,1304,NA,NA,1304,TRUE,1,1304,0,1304,122,1,0.47101908073836435,1,0.43320780636872186
w7569874,correct,1371,1096,NA,NA,1096,TRUE,1,1096,0,1096,123,1,0.5413373284452259,1,0.5964358870533026
w7569874,correct,2225,698,1017,NA,1017,FALSE,2,698,1017,1715,124,0,-2.62516566031273,1,0.018821535708627626
w7569874,correct,1375,1052,NA,NA,1052,TRUE,1,1052,0,1052,125,1,-0.07903789391844464,1,0.5796785725436308
w7569874,correct,1436,1192,NA,NA,1192,TRUE,1,1192,0,1192,126,1,-0.02036916255003617,1,0.22293200968397156
w7569874,correct,1119,837,NA,NA,837,TRUE,1,837,0,837,127,1,0.4136194107606258,1,0.21773213095790314
w7569874,correct,1219,956,NA,NA,956,TRUE,1,956,0,956,128,1,0.419469031792892,1,0.5230669901815171
w7569874,correct,1305,1043,NA,NA,1043,TRUE,1,1043,0,1043,129,1,0.40882477130978695,1,0.27326037002667575
w7569874,correct,1420,861,NA,NA,861,TRUE,1,861,0,861,130,1,0.4725056575538964,1,0.5651327093778045
w7569874,correct,2596,1497,875,NA,875,FALSE,2,1497,875,2372,131,0,-2.62516566031273,1,0.4992573553354632
w7569874,correct,1258,1002,NA,NA,1002,TRUE,1,1002,0,1002,132,1,0.3781994723610155,1,0.16406431157480428
w7569874,other,2370,683,1260,NA,1260,FALSE,2,683,1260,1943,133,0,-2.62516566031273,0.5,-2.2315225431983405
w9a75935,correct,4205.5,1109.1999999284744,944.7000000476837,1744.2999999523163,1744.2999999523163,TRUE,3,2853.4999998807907,944.7000000476837,3798.1999999284744,134,1,0.9356837921718079,1,0.7329287780800792
w9a75935,correct,2749.899999976158,550.5999999046326,535.7000000476837,1232.2000000476837,1232.2000000476837,TRUE,3,1782.7999999523163,535.7000000476837,2318.5,135,1,0.884603651112444,0.5,-0.5059558763186323
w9a75935,other,3174.1999999284744,430.1999999284744,2376.399999976158,NA,2376.399999976158,FALSE,2,430.1999999284744,2376.399999976158,2806.5999999046326,136,1,-0.21866987705957444,1,0.4900664379253408
w9a75935,correct,4813.399999976158,493.89999997615814,3056.2000000476837,NA,3056.2000000476837,FALSE,2,493.89999997615814,3056.2000000476837,3550.100000023842,137,0.5,-1.337328710681724,1,0.6427471817446692
w9a75935,correct,3749.200000047684,541.8999999761581,1055.7000000476837,1639.3999999761581,1639.3999999761581,TRUE,3,2181.2999999523163,1055.7000000476837,3237,138,1,0.3024556515855706,1,0.850584783191757
w9a75935,correct,2453.600000023842,533.7999999523163,1536.2000000476837,NA,1536.2000000476837,FALSE,2,533.7999999523163,1536.2000000476837,2070,139,1,0.3288257040252888,1,0.7901751938076849
w9a75935,correct,1999.100000023842,505.39999997615814,390.7000000476837,816.1000000238419,816.1000000238419,TRUE,3,1321.5,390.7000000476837,1712.2000000476837,140,1,0.6203251256833686,0.5,-0.8340187070291634
w9a75935,correct,2519.399999976158,416,751.7999999523163,712.8000000715256,712.8000000715256,TRUE,3,1128.8000000715256,751.7999999523163,1880.6000000238419,141,1,0.8297989190787697,1,-0.778461371265243
w9a75935,other,4614.600000023842,431.3000000715256,1912.1999999284744,1328.1000000238419,1328.1000000238419,TRUE,3,1759.4000000953674,1912.1999999284744,3671.600000023842,142,0,-1.8658628270339173,0,-1.8658628270339173
w9a75935,correct,2614,598.3999999761581,1543.4000000953674,NA,1543.4000000953674,FALSE,2,598.3999999761581,1543.4000000953674,2141.8000000715256,143,1,0.5820828738964432,1,0.9388362215092969
w9a75935,correct,2959.8000000715256,488.7000000476837,791.7999999523163,351.60000002384186,879.8999999761581,FALSE,4,840.3000000715256,1671.6999999284744,2512,144,1,0.2345349993592091,1,0.6871204248742835
w9a75935,correct,1999.5,423.7999999523163,1224.8999999761581,NA,1224.8999999761581,FALSE,2,423.7999999523163,1224.8999999761581,1648.6999999284744,145,1,-0.23008682657362506,1,0.7891564114122337
w9a75935,correct,2152,472.2999999523163,1271.8000000715256,NA,1271.8000000715256,FALSE,2,472.2999999523163,1271.8000000715256,1744.1000000238419,146,1,0.5985205393349979,1,0.9645354653151497
w9a75935,correct,2648.7999999523163,440.89999997615814,1415.6999999284744,NA,1415.6999999284744,FALSE,2,440.89999997615814,1415.6999999284744,1856.5999999046326,147,0,-1.8658628270339173,0.5,-0.8323611470874875
w9a75935,correct,2398.3000000715256,446.7000000476837,528.1000000238419,927.7999999523163,927.7999999523163,TRUE,3,1374.5,528.1000000238419,1902.6000000238419,148,1,0.7097147668511786,0,-1.8658628270339173
w9a75935,correct,3887.399999976158,399.89999997615814,1535.8999999761581,664.1000000238419,896.1000000238419,FALSE,4,1064,2432,3496,149,0,-1.8658628270339173,1,0.0772254424478903
w9a75935,correct,2709.100000023842,501.2999999523163,824.2000000476837,935.3999999761581,935.3999999761581,TRUE,3,1436.6999999284744,824.2000000476837,2260.899999976158,150,1,0.667420079078351,1,0.48561660356892433
w9a75935,correct,1902.5,414.89999997615814,967.7000000476837,NA,967.7000000476837,FALSE,2,414.89999997615814,967.7000000476837,1382.6000000238419,151,0,-1.8658628270339173,1,0.9609569712956981
w9a75935,correct,1999.8000000715256,432,576.3999999761581,600.2000000476837,600.2000000476837,TRUE,3,1032.2000000476837,576.3999999761581,1608.6000000238419,152,1,0.7049743041994498,0.5,-1.164974817571462
w7c192d0,correct,2365.29999999702,1615.2000000029802,NA,NA,1615.2000000029802,TRUE,1,1615.2000000029802,0,1615.2000000029802,153,1,0.627491921496783,1,-0.023865461069158586
w7c192d0,correct,2541.29999999702,2063.2999999970198,NA,NA,2063.2999999970198,TRUE,1,2063.2999999970198,0,2063.2999999970198,154,1,-1.9294784069876303,1,0.6902073219472549
w7c192d0,correct,1963.5999999940395,1652.8999999910593,NA,NA,1652.8999999910593,TRUE,1,1652.8999999910593,0,1652.8999999910593,155,1,0.8410951947772841,0,-4.704292524095103
w7c192d0,correct,1676.2999999970198,1496.5,NA,NA,1496.5,TRUE,1,1496.5,0,1496.5,156,1,0.4430280175836053,1,0.25287153209957575
w7c192d0,correct,1831.29999999702,1580.1000000089407,NA,NA,1580.1000000089407,TRUE,1,1580.1000000089407,0,1580.1000000089407,157,1,0.12520433193570615,1,-0.7559903213721452
w7c192d0,correct,1806,1445.8999999910593,NA,NA,1445.8999999910593,TRUE,1,1445.8999999910593,0,1445.8999999910593,158,1,0.2500653126448503,1,0.0425222536797709
w7c192d0,correct,1835.29999999702,1555.2000000029802,NA,NA,1555.2000000029802,TRUE,1,1555.2000000029802,0,1555.2000000029802,159,1,-0.7447804081302895,1,0.13830110949157293
w7c192d0,correct,2592.4000000059605,2337.6000000089407,NA,NA,2337.6000000089407,TRUE,1,2337.6000000089407,0,2337.6000000089407,160,1,-0.1880470377595535,1,0.32881057420082266
w7c192d0,correct,1618.5,1217.300000011921,NA,NA,1217.300000011921,TRUE,1,1217.300000011921,0,1217.300000011921,161,1,0.41409424143202495,1,0.4821330443705305
w7c192d0,correct,1462.199999988079,1255,NA,NA,1255,TRUE,1,1255,0,1255,162,1,0.4234822942479127,1,-0.03713607521406692
w7c192d0,correct,1406.2999999970198,1213,NA,NA,1213,TRUE,1,1213,0,1213,163,1,0.6253625184643025,1,-0.7311800442159739
w7c192d0,correct,1601.2999999970198,1168.4000000059605,NA,NA,1168.4000000059605,TRUE,1,1168.4000000059605,0,1168.4000000059605,164,1,0.452111271398019,1,0.618041404492083
w7c192d0,correct,1735.5,1522.2000000029802,NA,NA,1522.2000000029802,TRUE,1,1522.2000000029802,0,1522.2000000029802,165,1,-0.3362357413647116,1,0.5325635024355557
w7c192d0,correct,2285.29999999702,2043,NA,NA,2043,TRUE,1,2043,0,2043,166,1,0.1312513484507695,1,-2.037766886980771
w7c192d0,correct,1722.300000011921,1423.1000000089407,NA,NA,1423.1000000089407,TRUE,1,1423.1000000089407,0,1423.1000000089407,167,1,-0.7361674936520005,1,0.15325644300637914
w7c192d0,correct,1236.199999988079,1037.199999988079,NA,NA,1037.199999988079,TRUE,1,1037.199999988079,0,1037.199999988079,168,1,0.4890271908464506,1,0.6869642128837283
w7c192d0,correct,1561.9000000059605,1357.2999999970198,NA,NA,1357.2999999970198,TRUE,1,1357.2999999970198,0,1357.2999999970198,169,1,0.34617876580700085,1,0.6770117249981057
w7c192d0,correct,1903.4000000059605,1562.2999999970198,NA,NA,1562.2999999970198,TRUE,1,1562.2999999970198,0,1562.2999999970198,170,1,0.3541167862696393,1,0.07062382833651012
w7c192d0,correct,1219.7000000029802,1033,NA,NA,1033,TRUE,1,1033,0,1033,171,1,0.8400786431246241,1,0.2621466067260921
wbfa9620,correct,5523.5,989.2000000029802,3570.2999999970198,NA,3570.2999999970198,FALSE,2,989.2000000029802,3570.2999999970198,4559.5,172,1,-0.14086371846488793,1,0.8913301591653554
wbfa9620,correct,3317.5,2254.5,NA,NA,2254.5,TRUE,1,2254.5,0,2254.5,173,1,0.47443861180351027,1,0.7850376312280064
wbfa9620,correct,4515.29999999702,675.1999999880791,598.7000000029802,490,1852.7000000029802,FALSE,4,1165.199999988079,2451.4000000059605,3616.5999999940395,174,1,0.730533610531408,1,-0.31503696714388546
wbfa9620,correct,3275.29999999702,760.7999999970198,1790.5,NA,1790.5,FALSE,2,760.7999999970198,1790.5,2551.2999999970198,175,0,-2.0503788604863824,1,0.5463136852477846
wbfa9620,correct,3442.1000000089407,674.6000000089407,1788.0999999940395,NA,1788.0999999940395,FALSE,2,674.6000000089407,1788.0999999940395,2462.7000000029802,176,0,-2.0503788604863824,1,0.40555594212110196
wbfa9620,correct,3979.70000000298,739.2999999970198,913.7000000029802,1416.2999999970198,1416.2999999970198,TRUE,3,2155.5999999940395,913.7000000029802,3069.2999999970198,177,1,0.0893488747174275,1,-0.1424757618369113
wbfa9620,correct,3387.9000000059605,981.7000000029802,1980.7000000029802,NA,1980.7000000029802,FALSE,2,981.7000000029802,1980.7000000029802,2962.4000000059605,178,1,0.3129806345235829,1,0.7013693888292335
wbfa9620,correct,3401,684.5999999940395,940.7999999970198,1218.5,1218.5,TRUE,3,1903.0999999940395,940.7999999970198,2843.8999999910593,179,1,0.28708704564966125,1,0.5775159255259535
wbfa9620,correct,2742,537.7999999970198,1777.7999999970198,NA,1777.7999999970198,FALSE,2,537.7999999970198,1777.7999999970198,2315.5999999940395,180,0,-2.0503788604863824,1,0.2876722621860866
wbfa9620,correct,3029.79999999702,786.2000000029802,1746.5,NA,1746.5,FALSE,2,786.2000000029802,1746.5,2532.7000000029802,181,1,0.30955328774519436,1,0.7993249056691842
wbfa9620,correct,3559.800000011921,666.1000000089407,577.5,1956.3999999910593,1956.3999999910593,TRUE,3,2622.5,577.5,3200,182,1,0.11962711135009137,1,0.6544149962256102
wbfa9620,correct,2532.800000011921,564.4000000059605,556.7000000029802,1100.0999999940395,1100.0999999940395,TRUE,3,1664.5,556.7000000029802,2221.2000000029802,183,1,0.913303852883792,0,-2.0503788604863824
wbfa9620,correct,3217.20000000298,650.4000000059605,1927.9000000059605,NA,1927.9000000059605,FALSE,2,650.4000000059605,1927.9000000059605,2578.300000011921,184,1,0.17645824334673457,1,0.7748228859363292
wbfa9620,correct,3220.4000000059605,639.2000000029802,727.0999999940395,1448,1448,TRUE,3,2087.2000000029802,727.0999999940395,2814.2999999970198,185,1,0.29695492918898064,1,0.3494748287373041
wbfa9620,correct,2278.199999988079,656.3999999910593,374.6000000089407,911.6999999880791,911.6999999880791,TRUE,3,1568.0999999791384,374.6000000089407,1942.699999988079,186,1,0.8639652916990598,1,0.25392184618071967
wbfa9620,timeout,14472.09999999404,471.3999999910593,3152.300000011921,630.5,2066.2999999970198,NA,4,1101.8999999910593,5218.600000008941,6320.5,187,0,-2.0503788604863824,0,-2.0503788604863824
wbfa9620,correct,3037.4000000059605,613.9000000059605,1973.0999999940395,NA,1973.0999999940395,FALSE,2,613.9000000059605,1973.0999999940395,2587,188,0,-2.0503788604863824,1,0.14660152648381758
wbfa9620,correct,3047.1000000089407,485.20000000298023,496.29999999701977,1239.2000000029802,1239.2000000029802,TRUE,3,1724.4000000059605,496.29999999701977,2220.7000000029802,189,1,0.23648605351011373,1,0.8275201578953728
wbfa9620,correct,3268.29999999702,779.5,1679.5,NA,1679.5,FALSE,2,779.5,1679.5,2459,190,1,0.7468759978846199,1,0.2539092847505456
w0ae1022,correct,4780.700000000186,661,3472.800000000745,NA,3472.800000000745,FALSE,2,661,3472.800000000745,4133.800000000745,191,0,-1.917461146861612,1,0.500375056027751
w0ae1022,correct,2612.800000000745,2119.7000000001863,NA,NA,2119.7000000001863,TRUE,1,2119.7000000001863,0,2119.7000000001863,192,1,0.062859277139153,1,0.6463652623784403
w0ae1022,timeout,NA,861.7000000001863,1435.8999999994412,1549.1000000005588,1165.1000000005588,NA,12,9840.200000000186,5178.5,15018.700000000186,193,0,-1.917461146861612,0,-1.917461146861612
w0ae1022,correct,2994.5,2333.600000000559,NA,NA,2333.600000000559,TRUE,1,2333.600000000559,0,2333.600000000559,194,1,0.007576836132615177,1,0.7477189423054479
w0ae1022,correct,1855.800000000745,1436.800000000745,NA,NA,1436.800000000745,TRUE,1,1436.800000000745,0,1436.800000000745,195,1,0.7082618109222641,1,0.8167737078241448
w0ae1022,correct,1772.5,1249.1000000005588,NA,NA,1249.1000000005588,TRUE,1,1249.1000000005588,0,1249.1000000005588,196,1,0.8029235379541926,1,0.5124821832996607
w0ae1022,correct,1718.7000000001865,1271.7000000001863,NA,NA,1271.7000000001863,TRUE,1,1271.7000000001863,0,1271.7000000001863,197,1,0.6091436593552104,1,0.5459156309345564
w0ae1022,correct,2702.600000000559,646.5,1801.2999999998137,NA,1801.2999999998137,FALSE,2,646.5,1801.2999999998137,2447.7999999998137,198,0,-1.917461146861612,1,0.5792704537894742
w0ae1022,correct,2433.5999999996275,1407.5999999996275,NA,NA,1407.5999999996275,TRUE,1,1407.5999999996275,0,1407.5999999996275,199,1,0.5361216206836824,1,-0.050589451289413674
w0ae1022,correct,1708.6000000005588,1334.800000000745,NA,NA,1334.800000000745,TRUE,1,1334.800000000745,0,1334.800000000745,200,1,0.5047533645522198,0,-1.917461146861612
w0ae1022,correct,3692.900000000373,1612.9000000003725,597.9000000003725,961.8999999994412,961.8999999994412,TRUE,3,2574.7999999998137,597.9000000003725,3172.7000000001863,201,1,-0.16293122618847986,0,-1.917461146861612
w0ae1022,correct,1800.5999999996277,1527.5,NA,NA,1527.5,TRUE,1,1527.5,0,1527.5,202,1,0.06290066572610592,1,0.2560059643596956
w0ae1022,correct,2275.7000000001863,1417.7000000001863,NA,NA,1417.7000000001863,TRUE,1,1417.7000000001863,0,1417.7000000001863,203,1,0.16711582425098992,1,0.4759710233096111
w0ae1022,correct,2607.7000000001863,861.8000000007451,1427,NA,1427,FALSE,2,861.8000000007451,1427,2288.800000000745,204,1,0.4531281515707598,1,0.7154529666920258
w0ae1022,correct,1608.5999999996277,1216.5999999996275,NA,NA,1216.5999999996275,TRUE,1,1216.5999999996275,0,1216.5999999996275,205,1,0.6203485940418589,1,0.8032224588023473
w0ae1022,correct,1631.8999999994412,1303.5999999996275,NA,NA,1303.5999999996275,TRUE,1,1303.5999999996275,0,1303.5999999996275,206,1,0.5909652323901637,0,-1.917461146861612
w0ae1022,correct,1750.7000000001865,1239.7000000001863,NA,NA,1239.7000000001863,TRUE,1,1239.7000000001863,0,1239.7000000001863,207,1,0.3916154605884688,0,-1.917461146861612
w0ae1022,correct,1577.7999999998135,1212.9000000003725,NA,NA,1212.9000000003725,TRUE,1,1212.9000000003725,0,1212.9000000003725,208,1,0.8276122410664809,1,0.5478983529883465
w0ae1022,correct,2935.4000000003725,1112.4000000003725,314,1276.8999999994412,1276.8999999994412,TRUE,3,2389.2999999998137,314,2703.2999999998137,209,1,0.34554548145084335,1,0.6378206165164668
wcd0b554,timeout,NA,3234.7999999523163,709,2341,7251,NA,9,13471.200000047684,1590.9999998807907,15062.199999928474,210,1,0.6987648009544833,0.5,-0.330172750741904
wcd0b554,intrusion,1299.899999976158,478.3000000715256,190.89999997615814,NA,190.89999997615814,TRUE,2,478.3000000715256,190.89999997615814,669.2000000476837,211,0,-1.1705905343797087,1,0.6922065191131033
wcd0b554,intrusion,3231.5,533.2999999523163,558.6000000238419,418.10000002384186,1108.6999999284744,FALSE,4,951.3999999761581,1667.2999999523163,2618.6999999284744,212,1,0.5973926311639103,1,0.8396855001514439
wcd0b554,correct,3230.7999999523163,486.5,1375,NA,1375,FALSE,2,486.5,1375,1861.5,213,0,-1.1705905343797087,1,0.9555394448441852
wcd0b554,correct,2090.7000000476837,496.10000002384186,368.7000000476837,698,698,TRUE,3,1194.1000000238419,368.7000000476837,1562.8000000715256,214,1,1.1047566257356656,0,-1.1705905343797087
wcd0b554,correct,2099.400000095367,1607.1000000238419,NA,NA,1607.1000000238419,TRUE,1,1607.1000000238419,0,1607.1000000238419,215,1,1.0852591419679063,0,-1.1705905343797087
wcd0b554,correct,2707.3000000715256,604.6000000238419,1761.2000000476837,NA,1761.2000000476837,FALSE,2,604.6000000238419,1761.2000000476837,2365.8000000715256,216,1,0.2452058947131875,1,0.6840752765430388
wcd0b554,correct,1818.899999976158,1358.3999999761581,NA,NA,1358.3999999761581,TRUE,1,1358.3999999761581,0,1358.3999999761581,217,1,0.8638925131392267,0,-1.1705905343797087
wcd0b554,correct,1527.100000023842,1086.6000000238419,NA,NA,1086.6000000238419,TRUE,1,1086.6000000238419,0,1086.6000000238419,218,1,1.0381258485539193,1,0.6451790239488714
wcd0b554,correct,1456.100000023842,399.5,744.3999999761581,NA,744.3999999761581,FALSE,2,399.5,744.3999999761581,1143.8999999761581,219,0,-1.1705905343797087,1,1.0176740337842947
wcd0b554,correct,1446.5,983.3999999761581,NA,NA,983.3999999761581,TRUE,1,983.3999999761581,0,983.3999999761581,220,1,1.175642937617059,1,0.7147912666066256
wcd0b554,empty,2529.8000000715256,483.60000002384186,700.7999999523163,968,968,TRUE,3,1451.6000000238419,700.7999999523163,2152.399999976158,221,0,-1.1705905343797087,0,-1.1705905343797087
wcd0b554,empty,2048.2000000476837,472.3000000715256,1158,NA,1158,TRUE,2,472.3000000715256,1158,1630.3000000715256,222,0,-1.1705905343797087,0,-1.1705905343797087
wcd0b554,correct,1400.7000000476835,935.7999999523163,NA,NA,935.7999999523163,TRUE,1,935.7999999523163,0,935.7999999523163,223,1,1.0470923534894079,0,-1.1705905343797087
wcd0b554,other,3691.899999976158,552.3999999761581,2265.3000000715256,NA,2265.3000000715256,TRUE,2,552.3999999761581,2265.3000000715256,2817.7000000476837,224,0,-1.1705905343797087,0,-1.1705905343797087
wcd0b554,correct,1380.899999976158,821.7999999523163,NA,NA,821.7999999523163,TRUE,1,821.7999999523163,0,821.7999999523163,225,1,1.0223239641396025,1,0.988506699737689
wcd0b554,correct,1729.100000023842,373.39999997615814,379.60000002384186,412.5,412.5,TRUE,3,785.8999999761581,379.60000002384186,1165.5,226,1,0.7406791598539543,0,-1.1705905343797087
wcd0b554,correct,1731.7000000476835,474.5,329.7999999523163,336.3000000715256,336.3000000715256,TRUE,3,810.8000000715256,329.7999999523163,1140.6000000238419,227,1,0.9239390259874419,1,0.8947412908312209
wcd0b554,correct,1969.2000000476835,534.6000000238419,909.8999999761581,NA,909.8999999761581,FALSE,2,534.6000000238419,909.8999999761581,1444.5,228,0,-1.1705905343797087,1,0.6407553281386098
w9f905bf,correct,3215.9999999998836,1463.9999999998836,1217,NA,1217,FALSE,2,1463.9999999998836,1217,2680.9999999998836,229,1,0.9789756578126447,1,0.8536729515782364
w9f905bf,correct,2822,796.0000000001164,1505.9999999998836,NA,1505.9999999998836,FALSE,2,796.0000000001164,1505.9999999998836,2302,230,0,-1.1490652909921875,1,1.094563418695507
w9f905bf,correct,2706,860,1275,NA,1275,FALSE,2,860,1275,2135,231,0,-1.1490652909921875,1,0.8143926591491183
w9f905bf,correct,3637.000000000117,637.0000000001164,726.9999999998836,1415,1415,TRUE,3,2052.0000000001164,726.9999999998836,2779,232,1,1.1001777427533264,1,0.7938791509486777
w9f905bf,correct,2654.9999999998836,484.9999999998836,1464,NA,1464,FALSE,2,484.9999999998836,1464,1948.9999999998836,233,0,-1.1490652909921875,1,0.7346976246753505
w9f905bf,correct,3248,1272,1573.0000000001164,NA,1573.0000000001164,FALSE,2,1272,1573.0000000001164,2845.0000000001164,234,0.5,-0.06918215861383588,1,1.0518553224451397
w9f905bf,empty,2912,546,2011,NA,2011,FALSE,2,546,2011,2557,235,0,-1.1490652909921875,0,-1.1490652909921875
w9f905bf,correct,2033,792,600,NA,600,TRUE,2,792,600,1392,236,1,1.0281721623738804,0,-1.1490652909921875
w9f905bf,correct,1745,1159,NA,NA,1159,TRUE,1,1159,0,1159,237,1,1.0801116237171353,1,0.6933094978649675
w9f905bf,correct,2889,863.0000000001164,952,301.9999999998836,301.9999999998836,TRUE,3,1165,952,2117,238,1,0.9613402775529095,0,-1.1490652909921875
w9f905bf,empty,3871,625,1061,1827,1827,TRUE,3,2452,1061,3513,239,0,-1.1490652909921875,0,-1.1490652909921875
w9f905bf,correct,2005,740,628,NA,628,TRUE,2,740,628,1368,240,1,0.9448573776165802,1,0.7827361033349447
w9f905bf,correct,1725,1105,NA,NA,1105,TRUE,1,1105,0,1105,241,1,0.9418866386220686,0,-1.1490652909921875
w9f905bf,correct,1959.9999999998836,294.9999999998836,1318,NA,1318,FALSE,2,294.9999999998836,1318,1612.9999999998836,242,0.5,-0.6259843938066659,1,0.9523663895608341
w9f905bf,correct,2262.0000000001164,590,1017,NA,1017,TRUE,2,590,1017,1607,243,1,0.5304736956872089,0,-1.1490652909921875
w9f905bf,correct,2357,805.0000000001164,601.9999999998836,546,546,TRUE,3,1351.0000000001164,601.9999999998836,1953,244,1,0.8038597767556824,0,-1.1490652909921875
w9f905bf,correct,2006,465,1208,NA,1208,FALSE,2,465,1208,1673,245,0,-1.1490652909921875,1,0.86109272471269
w9f905bf,correct,3059.0000000001164,504,1781.0000000001164,NA,1781.0000000001164,FALSE,2,504,1781.0000000001164,2285.0000000001164,246,0,-1.1490652909921875,1,0.21539412567432029
w9f905bf,correct,2019,723,959,NA,959,FALSE,2,723,959,1682,247,0,-1.1490652909921875,1,1.1108172527665001
wfe7f90e,correct,2407,1870,NA,NA,1870,TRUE,1,1870,0,1870,248,1,0.9680609614153359,0,-1.3058781927953875
wfe7f90e,intrusion,1906,1394,NA,NA,1394,TRUE,1,1394,0,1394,249,1,0.5567612473672114,0,-1.3058781927953875
wfe7f90e,correct,2724,1271,NA,NA,1271,TRUE,1,1271,0,1271,250,0.5,-0.09863321539889967,1,0.8764489082686633
wfe7f90e,empty,1496,1049,NA,NA,1049,FALSE,1,1049,0,1049,251,0,-1.3058781927953875,1,-0.1336110951774201
wfe7f90e,empty,NA,NA,NA,NA,NA,NA,0,0,0,0,252,NA,NA,NA,NA
wfe7f90e,correct,5218,4574,NA,NA,4574,TRUE,1,4574,0,4574,253,1,0.7138612285771998,0,-1.3058781927953875
wfe7f90e,correct,4822,4077,NA,NA,4077,TRUE,1,4077,0,4077,254,1,0.7946862014442079,1,0.9527819801365275
wfe7f90e,intrusion,10538,5049,2752,395,830,TRUE,4,5444,3582,9026,255,0,-1.3058781927953875,1,1.1322200800587001
wfe7f90e,correct,1383,666,NA,NA,666,TRUE,1,666,0,666,256,1,1.2715592847160462,0,-1.3058781927953875
wfe7f90e,empty,5850,1807,1910,NA,1910,TRUE,2,1807,1910,3717,257,0,-1.3058781927953875,1,0.8458863741429254
wfe7f90e,correct,13181,3848,622,7545,7545,TRUE,3,11393,622,12015,258,1,0.9229707991659313,0,-1.3058781927953875
wfe7f90e,correct,3687,2490,NA,NA,2490,TRUE,1,2490,0,2490,259,1,1.118113445300929,1,0.2808141061036741
wfe7f90e,correct,3441,1230,1695,NA,1695,FALSE,2,1230,1695,2925,260,0,-1.3058781927953875,1,0.8158397946116827
wfe7f90e,correct,4472,1343,2391,NA,2391,FALSE,2,1343,2391,3734,261,0,-1.3058781927953875,1,0.9417520005285998
wfe7f90e,correct,3868,1185,1937,NA,1937,FALSE,2,1185,1937,3122,262,0,-1.3058781927953875,1,0.8108209713931995
wfe7f90e,intrusion,4804,818,3441,NA,3441,TRUE,2,818,3441,4259,263,1,0.7720510019705906,1,0.36156024356470234
wfe7f90e,correct,1990,1389,NA,NA,1389,TRUE,1,1389,0,1389,264,1,-0.29289768266442195,0,-1.3058781927953875
wfe7f90e,correct,3128,617,595,761,537,FALSE,4,1378,1132,2510,265,0.5,-0.36273122594385737,1,0.3816506242524107
wfe7f90e,correct,4063,594,3014,NA,3014,FALSE,2,594,3014,3608,266,0,-1.3058781927953875,1,0.48504376549106776
w3faa654,other,NA,NA,NA,NA,NA,NA,0,0,0,0,267,NA,NA,NA,NA
w3faa654,other,NA,NA,NA,NA,NA,NA,0,0,0,0,268,NA,NA,NA,NA
w3faa654,other,1627.4000000022352,809.9000000022352,NA,NA,809.9000000022352,FALSE,1,809.9000000022352,0,809.9000000022352,269,1,0.8879112412401541,1,1.08913699115053
w3faa654,correct,7302.699999999255,2410.5,NA,NA,2410.5,TRUE,1,2410.5,0,2410.5,270,1,1.1562165001959706,1,-0.8874246965679294
w3faa654,correct,5996.39999999851,5391.39999999851,NA,NA,5391.39999999851,TRUE,1,5391.39999999851,0,5391.39999999851,271,0.5,0.4376285643616742,0.5,-0.8666134245733299
w3faa654,other,NA,NA,NA,NA,NA,NA,0,0,0,0,272,NA,NA,NA,NA
w3faa654,correct,7316.900000002235,1962.800000000745,NA,NA,1962.800000000745,TRUE,1,1962.800000000745,0,1962.800000000745,273,0.5,-0.6691320586803424,0,-1.4445081273578133
w3faa654,other,NA,NA,NA,NA,NA,NA,0,0,0,0,274,NA,NA,NA,NA
w3faa654,correct,5273.5,4508.199999999255,NA,NA,4508.199999999255,TRUE,1,4508.199999999255,0,4508.199999999255,275,0,-1.4445081273578133,1,1.1185909050917102
w3faa654,correct,3579.70000000298,2915.60000000149,NA,NA,2915.60000000149,TRUE,1,2915.60000000149,0,2915.60000000149,276,1,2.016373728209706,0.5,-0.8352382346354688
w3faa654,correct,8011.300000000745,7429.400000002235,NA,NA,7429.400000002235,TRUE,1,7429.400000002235,0,7429.400000002235,277,1,-0.03562366435840847,1,0.4800284832200534
w3faa654,empty,NA,NA,NA,NA,NA,NA,0,0,0,0,278,NA,NA,NA,NA
w3faa654,timeout,12681.800000000743,6663.300000000745,NA,NA,6663.300000000745,NA,1,6663.300000000745,0,6663.300000000745,279,0.5,0.1165430285754376,1,0.7460394490275
w3faa654,other,9359.39999999851,7387.300000000745,NA,NA,7387.300000000745,FALSE,1,7387.300000000745,0,7387.300000000745,280,0.5,-0.9907338359975458,0.5,-0.46539505219313443
w3faa654,correct,3443.10000000149,2714.699999999255,NA,NA,2714.699999999255,TRUE,1,2714.699999999255,0,2714.699999999255,281,1,-0.2419706597285987,1,-0.4144556486871142
w3faa654,empty,NA,NA,NA,NA,NA,NA,0,0,0,0,282,NA,NA,NA,NA
w3faa654,correct,2623.900000002235,826,NA,NA,826,TRUE,1,826,0,826,283,0.5,-0.05094504451407513,1,0.014277887061499068
w3faa654,correct,6757.699999999255,608,NA,NA,608,TRUE,1,608,0,608,284,1,-0.18658127074833433,1,2.42778338357116
w3faa654,correct,3673.400000002235,535.6999999992549,NA,NA,535.6999999992549,TRUE,1,535.6999999992549,0,535.6999999992549,285,1,0.9274862956694735,1,-0.7086750992947336
wa201a0e,correct,10122.5,1880,1314.199999999255,804.4000000022352,4676.60000000149,TRUE,5,7361.000000003725,1953.4999999962747,9314.5,286,1,-0.32947891452606587,1,0.6566246666139861
wa201a0e,correct,4895.800000000745,1315.800000000745,2671.5,NA,2671.5,FALSE,2,1315.800000000745,2671.5,3987.300000000745,287,1,0.8370237941283613,1,0.14961840337138543
wa201a0e,correct,3615.5,1037.199999999255,2230.10000000149,NA,2230.10000000149,FALSE,2,1037.199999999255,2230.10000000149,3267.300000000745,288,1,0.5983783013939955,1,0.6673308564174352
wa201a0e,correct,3235.5,989.1999999992549,718.5999999977648,1010.8000000007451,1010.8000000007451,TRUE,3,2000,718.5999999977648,2718.599999997765,289,1,0.27270577380768746,0.5,-1.4321276693879128
wa201a0e,correct,3138.300000000745,1176.8999999985099,1602.5,NA,1602.5,FALSE,2,1176.8999999985099,1602.5,2779.39999999851,290,1,-0.1355020967959371,1,0.8422836558310475
wa201a0e,correct,2784.70000000298,868.7000000029802,1513.5,NA,1513.5,FALSE,2,868.7000000029802,1513.5,2382.2000000029802,291,1,0.6915779448919949,1,0.33871642312415956
wa201a0e,correct,3230.39999999851,873.6000000014901,1976.5,NA,1976.5,FALSE,2,873.6000000014901,1976.5,2850.10000000149,292,0.5,-1.4975693066541074,1,0.3375780035619814
wa201a0e,correct,3784.5,689.7999999970198,599.1000000014901,1382,1382,TRUE,3,2071.7999999970198,599.1000000014901,2670.89999999851,293,1,0.26160483221671366,1,0.09838167243845208
wa201a0e,correct,3060.39999999851,801.2999999970198,501.70000000298023,1203.5,1203.5,TRUE,3,2004.7999999970198,501.70000000298023,2506.5,294,1,0.3975124932958974,0,-3.5769260982973727
wa201a0e,correct,3084.800000000745,781.1000000014901,359.29999999701977,1080.300000000745,1080.300000000745,TRUE,3,1861.4000000022352,359.29999999701977,2220.699999999255,295,1,0.5311212875211359,1,-0.21524631889182444
wa201a0e,correct,2587.29999999702,577.5,530.2999999970198,1048.1000000014901,1048.1000000014901,TRUE,3,1625.6000000014901,530.2999999970198,2155.89999999851,296,1,0.6746124818004929,1,0.529865820866559
wa201a0e,correct,2680.099999997765,602,391.5,1266.699999999255,1266.699999999255,TRUE,3,1868.699999999255,391.5,2260.199999999255,297,1,-0.19832266701406517,1,-0.038263031200027144
wa201a0e,correct,2653.300000000745,615.3000000007451,411.8999999985099,1071.199999999255,1071.199999999255,TRUE,3,1686.5,411.8999999985099,2098.39999999851,298,1,0.6787383667492406,1,0.4428098204152432
wa201a0e,correct,2730.199999999255,725.6999999992549,427,1152.5,1152.5,TRUE,3,1878.199999999255,427,2305.199999999255,299,1,0.3966923983987752,0,-3.5769260982973727
wa201a0e,correct,3240.599999997765,573.6999999992549,333.30000000074506,1061.8999999985099,845.6999999992549,FALSE,4,1635.5999999977648,1179,2814.599999997765,300,1,0.16385006683481992,1,-1.0150326790103776
wa201a0e,correct,2187.5,626.5,219.09999999776483,967.5,967.5,TRUE,3,1594,219.09999999776483,1813.0999999977648,301,1,0.6233132819885759,1,0.21845490690271377
wa201a0e,correct,3076.199999999255,598.1999999992549,280.70000000298023,894.1999999992549,841.3999999985099,FALSE,4,1492.3999999985099,1122.1000000014901,2614.5,302,1,0.7103996406855657,1,0.6008689338455998
wa201a0e,correct,2213.900000002235,567.8000000007451,256.8999999985099,900.3000000007451,900.3000000007451,TRUE,3,1468.1000000014901,256.8999999985099,1725,303,1,-0.3685466066514761,1,0.5195368882447279
wa201a0e,correct,2760.89999999851,715.3999999985099,1748.199999999255,NA,1748.199999999255,FALSE,2,715.3999999985099,1748.199999999255,2463.599999997765,304,1,-0.3229732950597427,1,-0.3885333039763274
wb453b10,correct,9008.60000000149,2756.10000000149,2009.699999999255,3436.89999999851,3436.89999999851,TRUE,3,6193,2009.699999999255,8202.699999999255,305,1,1.0145898209873425,0,-1.5973870246108763
wb453b10,timeout,NA,NA,NA,NA,NA,NA,0,0,0,0,306,NA,NA,NA,NA
wb453b10,timeout,NA,3182,9054,NA,9054,NA,2,3182,9054,12236,307,1,0.35632650253741094,0,-1.5973870246108763
wb453b10,correct,7092.199999999255,3388.400000002235,2628.699999999255,NA,2628.699999999255,TRUE,2,3388.400000002235,2628.699999999255,6017.10000000149,308,1,0.5610347668075157,0,-1.5973870246108763
wb453b10,correct,9871.900000002235,5190.800000000745,3106.199999999255,NA,3106.199999999255,TRUE,2,5190.800000000745,3106.199999999255,8297,309,1,0.7665200071333463,0,-1.5973870246108763
wb453b10,correct,9951.699999999257,3277.60000000149,3742.099999997765,NA,3742.099999997765,TRUE,2,3277.60000000149,3742.099999997765,7019.699999999255,310,1,0.7060262248472639,0.5,-0.6381197041740857
wb453b10,correct,5248.5,2129.099999997765,2388.900000002235,NA,2388.900000002235,TRUE,2,2129.099999997765,2388.900000002235,4518,311,1,0.06434092215473028,1,0.7675276459304768
wb453b10,correct,5688.39999999851,2473.89999999851,1865,NA,1865,TRUE,2,2473.89999999851,1865,4338.89999999851,312,1,0.8600760419579946,1,0.7430408796498421
wb453b10,correct,10863.199999999257,2652.300000000745,3430.5,1150.5,2442.699999999255,FALSE,4,3802.800000000745,5873.199999999255,9676,313,0,-1.5973870246108763,1,0.7938903917944554
wb453b10,correct,4692.699999999255,2319.099999997765,1411.5,NA,1411.5,TRUE,2,2319.099999997765,1411.5,3730.599999997765,314,1,0.7902613210201695,0.5,-1.3400286169919842
wb453b10,correct,6278.29999999702,2542.2999999970198,3077.10000000149,NA,3077.10000000149,FALSE,2,2542.2999999970198,3077.10000000149,5619.39999999851,315,0,-1.5973870246108763,1,1.044532671562419
wb453b10,correct,6453.199999999255,2833.300000000745,2260.300000000745,NA,2260.300000000745,TRUE,2,2833.300000000745,2260.300000000745,5093.60000000149,316,1,1.1141547026806782,1,0.326924704661372
wb453b10,correct,6480.89999999851,2144.39999999851,2809.800000000745,NA,2809.800000000745,FALSE,2,2144.39999999851,2809.800000000745,4954.199999999255,317,0.5,-0.6323362824612457,1,0.4687320577606272
wb453b10,correct,5040.5,2681.199999999255,1537,NA,1537,TRUE,2,2681.199999999255,1537,4218.199999999255,318,1,-1.4073885472781463e-4,0,-1.5973870246108763
wb453b10,correct,8424,2017.199999999255,5418.400000002235,NA,5418.400000002235,FALSE,2,2017.199999999255,5418.400000002235,7435.60000000149,319,0,-1.5973870246108763,1,0.4227706632327372
wb453b10,correct,8330.800000000745,1924.7000000029802,2522,1017.5999999977648,1127.9000000022352,FALSE,4,2942.300000000745,3649.900000002235,6592.20000000298,320,0,-1.5973870246108763,1,-0.36019460253240126
wb453b10,correct,4707.10000000149,1956.300000000745,1896.1000000014901,NA,1896.1000000014901,TRUE,2,1956.300000000745,1896.1000000014901,3852.400000002235,321,1,0.7243662032546716,1,0.9509565473368132
wb453b10,timeout,NA,NA,NA,NA,NA,NA,0,0,0,0,322,NA,NA,NA,NA
wb453b10,correct,4877.699999999255,2420.699999999255,1777.4000000022352,NA,1777.4000000022352,TRUE,2,2420.699999999255,1777.4000000022352,4198.10000000149,323,1,0.9980477182478983,1,0.849142338970934
w742eda0,correct,2655.10000000149,2168.5,NA,NA,2168.5,TRUE,1,2168.5,0,2168.5,324,1,1.1603590541820998,0,-1.241469505226822
w742eda0,correct,2771.9000000059605,1721.3000000044703,NA,NA,1721.3000000044703,TRUE,1,1721.3000000044703,0,1721.3000000044703,325,1,0.7498254729044872,0,-1.241469505226822
w742eda0,correct,3710.5,752.7000000029802,2527.89999999851,NA,2527.89999999851,FALSE,2,752.7000000029802,2527.89999999851,3280.60000000149,326,0,-1.241469505226822,1,0.25170618713111936
w742eda0,empty,3289.20000000298,1137.6000000014901,752.2999999970198,1189.3000000044703,1189.3000000044703,FALSE,3,2326.9000000059605,752.2999999970198,3079.2000000029802,327,0.5,-0.44652535261742055,0,-1.241469505226822
w742eda0,correct,2870.10000000149,882,1517.2999999970198,NA,1517.2999999970198,FALSE,2,882,1517.2999999970198,2399.2999999970198,328,1,0.46682234008775647,1,0.56231454472508
w742eda0,correct,2060.79999999702,1555.5,NA,NA,1555.5,TRUE,1,1555.5,0,1555.5,329,1,0.3150715557122374,1,0.7729951857784678
w742eda0,correct,2785.39999999851,2364.6999999955297,NA,NA,2364.6999999955297,TRUE,1,2364.6999999955297,0,2364.6999999955297,330,1,1.14242981292069,0,-1.241469505226822
w742eda0,correct,1918.20000000298,1415.3999999985099,NA,NA,1415.3999999985099,TRUE,1,1415.3999999985099,0,1415.3999999985099,331,1,0.9097153237455768,1,0.7142114140409981
w742eda0,correct,2032.1999999955297,1341.3999999985099,NA,NA,1341.3999999985099,TRUE,1,1341.3999999985099,0,1341.3999999985099,332,1,1.166450306247398,1,0.9808928367296947
w742eda0,correct,1803.20000000298,1403.1000000014901,NA,NA,1403.1000000014901,TRUE,1,1403.1000000014901,0,1403.1000000014901,333,1,1.0331646533649064,0,-1.241469505226822
w742eda0,correct,3178.6999999955297,965.5,1887.1999999955297,NA,1887.1999999955297,FALSE,2,965.5,1887.1999999955297,2852.6999999955297,334,0,-1.241469505226822,1,0.7953158216399864
w742eda0,correct,1504.8000000044703,1172.6000000014901,NA,NA,1172.6000000014901,TRUE,1,1172.6000000014901,0,1172.6000000014901,335,1,0.9769274573064307,1,1.0167474812776616
w742eda0,other,5079,933.7000000029802,779.5,3124.6999999955297,3124.6999999955297,TRUE,3,4058.39999999851,779.5,4837.89999999851,336,0,-1.241469505226822,0.5,-0.8048659580014098
w742eda0,correct,1997,1735.3999999985099,NA,NA,1735.3999999985099,TRUE,1,1735.3999999985099,0,1735.3999999985099,337,1,1.1521211592859866,0,-1.241469505226822
w742eda0,correct,2501.60000000149,948.3000000044703,1274.2999999970198,NA,1274.2999999970198,FALSE,2,948.3000000044703,1274.2999999970198,2222.60000000149,338,0,-1.241469505226822,1,0.625037706066664
w742eda0,correct,2738.79999999702,795.6999999955297,1623.4000000059605,NA,1623.4000000059605,FALSE,2,795.6999999955297,1623.4000000059605,2419.10000000149,339,1,0.3602760067762487,1,0.9565429342218515
w742eda0,other,5878.69999999553,622.5999999940395,865,3025.8000000044703,3025.8000000044703,TRUE,3,3648.39999999851,865,4513.39999999851,340,0,-1.241469505226822,0,-1.241469505226822
w742eda0,correct,3635.10000000149,1679.3000000044703,503.8999999985099,417.79999999701977,701.3000000044703,FALSE,4,2097.10000000149,1205.2000000029802,3302.3000000044703,341,1,0.4236278138396016,1,0.26866016229447365
w742eda0,other,3276.29999999702,585,2331.89999999851,NA,2331.89999999851,FALSE,2,585,2331.89999999851,2916.89999999851,342,0,-1.241469505226822,0,-1.241469505226822
w55bbf4f,correct,8172.799999952316,884.7999999523163,838.2000000476837,2750.899999976158,2488.7999999523163,FALSE,4,3635.6999999284744,3327,6962.699999928474,343,1,0.2726118871352529,1,0.19916583292733653
w55bbf4f,correct,3952.399999976158,513.8999999761581,2466.8000000715256,NA,2466.8000000715256,FALSE,2,513.8999999761581,2466.8000000715256,2980.7000000476837,344,1,0.3167115746735729,1,0.8035630148980394
w55bbf4f,correct,5639.199999928474,788.3999999761581,621.1000000238419,3752.0999999046326,3752.0999999046326,TRUE,3,4540.499999880791,621.1000000238419,5161.599999904633,345,1,-0.15384446819838735,0,-1.7767930789660833
w55bbf4f,correct,3955.3000000715256,634.8000000715256,600.0999999046326,538,1136.8000000715256,FALSE,4,1172.8000000715256,1736.8999999761581,2909.7000000476837,346,1,0.7183995301412959,1,0.7175985314057095
w55bbf4f,correct,4719.799999952316,548.8999999761581,793.7000000476837,2610.1999999284744,2610.1999999284744,TRUE,3,3159.0999999046326,793.7000000476837,3952.7999999523163,347,1,0.8135104729572691,1,0.0557069066408887
w55bbf4f,correct,4106.800000071526,564.6000000238419,2980.2000000476837,NA,2980.2000000476837,FALSE,2,564.6000000238419,2980.2000000476837,3544.8000000715256,348,0,-1.7767930789660833,1,0.693276450400497
w55bbf4f,correct,3545.900000095367,504.5,1671.2000000476837,NA,1671.2000000476837,TRUE,2,504.5,1671.2000000476837,2175.7000000476837,349,1,0.7024465065796778,1,0.4380069766897661
w55bbf4f,other,4152.100000023842,495.7999999523163,593.5,2259.5,2259.5,TRUE,3,2755.2999999523163,593.5,3348.7999999523163,350,0,-1.7767930789660833,0,-1.7767930789660833
w55bbf4f,correct,2853.100000023842,440.60000002384186,1797.5999999046326,NA,1797.5999999046326,FALSE,2,440.60000002384186,1797.5999999046326,2238.1999999284744,351,1,-0.21672198708361973,1,0.621681092713244
w55bbf4f,correct,2789.7000000476837,632.8999999761581,422.7000000476837,1219.8999999761581,1219.8999999761581,TRUE,3,1852.7999999523163,422.7000000476837,2275.5,352,1,0.4195294850150309,1,0.5730325205813898
w55bbf4f,correct,2561.400000095367,507.10000002384186,409.89999997615814,1044.5,1044.5,TRUE,3,1551.6000000238419,409.89999997615814,1961.5,353,1,0.6014944741531502,1,0.6744493996150013
w55bbf4f,correct,3961.3000000715256,808.1000000238419,335,2231.100000023842,2231.100000023842,TRUE,3,3039.2000000476837,335,3374.2000000476837,354,1,0.8120062295130911,1,0.7300235890107334
w55bbf4f,correct,2679,661,392.60000002384186,1004.7999999523163,1004.7999999523163,TRUE,3,1665.7999999523163,392.60000002384186,2058.399999976158,355,1,0.7886341972665663,1,0.4063678694094048
w55bbf4f,correct,3343.2999999523163,548.2999999523163,279.10000002384186,1730.1000000238419,1730.1000000238419,TRUE,3,2278.399999976158,279.10000002384186,2557.5,356,1,0.5465578729273055,0,-1.7767930789660833
w55bbf4f,correct,2356.900000095367,552.3000000715256,322.7999999523163,1109.3000000715256,1109.3000000715256,TRUE,3,1661.6000001430511,322.7999999523163,1984.4000000953674,357,1,0.6378665434314866,0,-1.7767930789660833
w55bbf4f,correct,3053.899999976158,533.1999999284744,1696,NA,1696,FALSE,2,533.1999999284744,1696,2229.1999999284744,358,0,-1.7767930789660833,1,0.6625337221755054
w55bbf4f,correct,5123.799999952316,493.6999999284744,1017.7000000476837,3227.399999976158,3227.399999976158,TRUE,3,3721.0999999046326,1017.7000000476837,4738.799999952316,359,1,0.2073421675238419,1,0.37606438467297976
w55bbf4f,correct,2804.600000023842,689.2000000476837,534.1000000238419,1070.2999999523163,1070.2999999523163,TRUE,3,1759.5,534.1000000238419,2293.600000023842,360,1,0.6390094493212612,0,-1.7767930789660833
w55bbf4f,correct,4618.799999952316,1192.8999999761581,1019.2000000476837,986.6999999284744,997.5,FALSE,4,2179.5999999046326,2016.7000000476837,4196.299999952316,361,1,0.4002087046960656,1,0.637040511076441
web412f0,correct,4779.700000047684,1718.2000000476837,1305.7999999523163,986.3000001907349,986.3000001907349,TRUE,3,2704.5000002384186,1305.7999999523163,4010.300000190735,362,1,0.8809981509331541,1,0.6547695405435046
web412f0,correct,3614.099999904633,1191.4000000953674,2123.7999999523163,NA,2123.7999999523163,FALSE,2,1191.4000000953674,2123.7999999523163,3315.2000000476837,363,1,0.3411404496249407,1,-1.0610931607247789
web412f0,correct,3402.100000143051,1288,1817.1000001430511,NA,1817.1000001430511,TRUE,2,1288,1817.1000001430511,3105.100000143051,364,1,0.42905623985869484,1,-0.43718590718111094
web412f0,correct,3225.7999999523163,1155.7999999523163,1799.2999999523163,NA,1799.2999999523163,FALSE,2,1155.7999999523163,1799.2999999523163,2955.0999999046326,365,1,-0.15240975050531053,1,0.3494264076176782
web412f0,correct,2746.100000143051,1103.9000000953674,1280.7999999523163,NA,1280.7999999523163,TRUE,2,1103.9000000953674,1280.7999999523163,2384.7000000476837,366,1,-0.6703261477980567,1,0.1752763387843412
web412f0,correct,2687.2999999523163,1001.2999999523163,1409.4000000953674,NA,1409.4000000953674,FALSE,2,1001.2999999523163,1409.4000000953674,2410.7000000476837,367,1,0.15989538512827395,1,0.2798104263155302
web412f0,correct,2775.5,871.7000000476837,1653.7000000476837,NA,1653.7000000476837,FALSE,2,871.7000000476837,1653.7000000476837,2525.4000000953674,368,1,-0.005981197489022652,1,0.61351067976625
web412f0,correct,3015.599999904633,998.7000000476837,1733.3999998569489,NA,1733.3999998569489,FALSE,2,998.7000000476837,1733.3999998569489,2732.0999999046326,369,1,0.5664800027497413,1,-0.44581712744651714
web412f0,correct,1976.5999999046328,937.3999998569489,632.9000000953674,NA,632.9000000953674,TRUE,2,937.3999998569489,632.9000000953674,1570.2999999523163,370,1,0.644479275865346,1,-0.13775181861701516
web412f0,correct,2981.400000095367,912.7000000476837,1859.2000000476837,NA,1859.2000000476837,FALSE,2,912.7000000476837,1859.2000000476837,2771.9000000953674,371,1,-1.297563288020113,1,-0.3792082884848719
web412f0,correct,2526.100000143051,871.9000000953674,1433.8999998569489,NA,1433.8999998569489,FALSE,2,871.9000000953674,1433.8999998569489,2305.7999999523163,372,1,-0.6232256952284863,1,0.8862092419079025
web412f0,correct,2289.100000143051,911.1000001430511,1084.2000000476837,NA,1084.2000000476837,TRUE,2,911.1000001430511,1084.2000000476837,1995.3000001907349,373,1,0.3950475039844555,1,0.5208866457542682
web412f0,correct,1862.3000001907349,800,612.1000001430511,NA,612.1000001430511,TRUE,2,800,612.1000001430511,1412.1000001430511,374,1,0.30914140759544406,1,0.7418801834303612
web412f0,correct,2739.899999856949,849.5,1514,NA,1514,FALSE,2,849.5,1514,2363.5,375,0,-5.13193058366162,1,0.16693261788909955
web412f0,correct,1813.2999999523165,799.2999999523163,758.1000001430511,NA,758.1000001430511,TRUE,2,799.2999999523163,758.1000001430511,1557.4000000953674,376,1,0.40380318322676656,1,-0.8242040088801162
web412f0,correct,1845,864.9000000953674,738.1999998092651,NA,738.1999998092651,TRUE,2,864.9000000953674,738.1999998092651,1603.0999999046326,377,1,0.26767654417579134,1,0.06473537660269169
web412f0,correct,2477.7999999523163,768.5999999046326,1545.7999999523163,NA,1545.7999999523163,FALSE,2,768.5999999046326,1545.7999999523163,2314.399999856949,378,1,-0.7169097892115678,1,0.5256275067999261
web412f0,correct,3070.7000000476837,1486.2000000476837,1278.1999998092651,NA,1278.1999998092651,FALSE,2,1486.2000000476837,1278.1999998092651,2764.399999856949,379,1,0.3484141262116098,1,0.6403899293433831
web412f0,correct,2370.7000000476837,815,1162.3000001907349,NA,1162.3000001907349,TRUE,2,815,1162.3000001907349,1977.3000001907349,380,1,0.7288430059067784,1,-0.4143033135599149
w310c0b6,correct,3945.79999999702,3409.5,NA,NA,3409.5,TRUE,1,3409.5,0,3409.5,381,1,-0.9393132520915912,1,-0.6487159321233301
w310c0b6,empty,6593.60000000149,446.29999999701977,2174.2000000029802,NA,2174.2000000029802,TRUE,2,446.29999999701977,2174.2000000029802,2620.5,382,1,1.1543618724215774,1,1.4630694542507696
w310c0b6,timeout,NA,860,8763.60000000149,NA,8763.60000000149,NA,2,860,8763.60000000149,9623.60000000149,383,1,-0.8438066282067843,1,0.0544758569444248
w310c0b6,correct,4990.20000000298,4540.10000000149,NA,NA,4540.10000000149,TRUE,1,4540.10000000149,0,4540.10000000149,384,1,0.8585026174009072,0.5,-1.7249672072932318
w310c0b6,timeout,NA,2562.60000000149,2332.89999999851,3468.3000000044703,3468.3000000044703,NA,3,6030.9000000059605,2332.89999999851,8363.80000000447,385,1,-0.43981634572555817,1,-0.5511697463209837
w310c0b6,correct,8130.59999999404,1236.5999999940395,3919.2000000029802,NA,3919.2000000029802,FALSE,2,1236.5999999940395,3919.2000000029802,5155.79999999702,386,1,-0.5125474012417512,1,-0.7626563785555661
w310c0b6,correct,2678,2061.3000000044703,NA,NA,2061.3000000044703,TRUE,1,2061.3000000044703,0,2061.3000000044703,387,1,1.084870585703742,1,1.5717142404877795
w310c0b6,correct,10922.89999999851,1124.6999999955297,9171.39999999851,NA,9171.39999999851,FALSE,2,1124.6999999955297,9171.39999999851,10296.09999999404,388,1,0.37042675002313835,1,-0.7462407504606292
w310c0b6,correct,2789.10000000149,2084.10000000149,NA,NA,2084.10000000149,TRUE,1,2084.10000000149,0,2084.10000000149,389,1,0.954615341644085,0.5,-1.72369163807617
w310c0b6,timeout,NA,955.6999999955297,1128,12975.80000000447,12975.80000000447,NA,3,13931.5,1128,15059.5,390,1,-0.18348700653557035,0.5,-1.0412043788433314
w310c0b6,correct,3739.60000000149,1575.8000000044703,1696.6999999955297,NA,1696.6999999955297,FALSE,2,1575.8000000044703,1696.6999999955297,3272.5,391,1,-1.3661905420734768,1,1.8709894894194201
w310c0b6,correct,3320.20000000298,2797.3000000044703,NA,NA,2797.3000000044703,TRUE,1,2797.3000000044703,0,2797.3000000044703,392,1,-0.5179641462254776,1,-0.6999756500969702
w310c0b6,correct,2132.70000000298,1545.7000000029802,NA,NA,1545.7000000029802,TRUE,1,1545.7000000029802,0,1545.7000000029802,393,1,1.4477457401856275,1,0.18098307510764194
w310c0b6,correct,7300,700.3000000044703,6306.29999999702,NA,6306.29999999702,FALSE,2,700.3000000044703,6306.29999999702,7006.60000000149,394,1,-0.06473444908780693,1,-0.005970479132821996
w310c0b6,correct,2405.60000000149,1788.3000000044703,NA,NA,1788.3000000044703,TRUE,1,1788.3000000044703,0,1788.3000000044703,395,1,-0.19847095682265548,1,-0.020254969167238315
w310c0b6,correct,3458,874.7999999970198,2282.2000000029802,NA,2282.2000000029802,FALSE,2,874.7999999970198,2282.2000000029802,3157,396,0.5,-1.8197459201776094,1,0.5432514066214424
w310c0b6,correct,3798.5,885.8999999985099,2542.60000000149,NA,2542.60000000149,FALSE,2,885.8999999985099,2542.60000000149,3428.5,397,0.5,-1.3427501868303142,1,0.09954012147119697
w310c0b6,correct,4332.39999999851,3589.3000000044703,NA,NA,3589.3000000044703,TRUE,1,3589.3000000044703,0,3589.3000000044703,398,1,1.6919040691346074,1,0.17049847740347845
w310c0b6,correct,5811.60000000149,908.3999999985099,2435.3000000044703,1842.2999999970198,1842.2999999970198,TRUE,3,2750.6999999955297,2435.3000000044703,5186,399,1,0.5110915965768403,1,0.05652481787571677
w50a5f2a,correct,4902,1179.7000000178814,959.5999999940395,1968.5,1968.5,TRUE,3,3148.2000000178814,959.5999999940395,4107.800000011921,400,1,0.5457590582810488,0,-1.7825257434856918
w50a5f2a,correct,5620.4000000059605,771.1999999880791,4116.300000011921,NA,4116.300000011921,FALSE,2,771.1999999880791,4116.300000011921,4887.5,401,1,0.5589831595579482,1,0.429928054085776
w50a5f2a,correct,4168.5999999940395,856.5,644.4000000059605,1734.2999999821186,1734.2999999821186,TRUE,3,2590.7999999821186,644.4000000059605,3235.199999988079,402,1,0.6298287162667752,0,-1.7825257434856918
w50a5f2a,correct,4393.5,796.5,715.5,2181.5999999940395,2181.5999999940395,TRUE,3,2978.0999999940395,715.5,3693.5999999940395,403,1,0.3506739408893507,1,0.8111354593918815
w50a5f2a,correct,3064.2000000178814,930.5999999940395,1531.4000000059605,NA,1531.4000000059605,FALSE,2,930.5999999940395,1531.4000000059605,2462,404,0,-1.7825257434856918,1,0.4298416207263732
w50a5f2a,correct,3345.4000000059605,640.0999999940395,2174.2000000178814,NA,2174.2000000178814,FALSE,2,640.0999999940395,2174.2000000178814,2814.300000011921,405,1,0.757149455631391,1,0.6949654544269698
w50a5f2a,correct,3259.800000011921,643.0999999940395,1981.800000011921,NA,1981.800000011921,FALSE,2,643.0999999940395,1981.800000011921,2624.9000000059605,406,1,0.5627987405794307,1,0.643232439430382
w50a5f2a,correct,2411.5,622.0999999940395,1413.2999999821186,NA,1413.2999999821186,FALSE,2,622.0999999940395,1413.2999999821186,2035.3999999761581,407,1,0.38117731315850356,1,0.8933970417676779
w50a5f2a,correct,3443.0999999940395,552.5,2257.300000011921,NA,2257.300000011921,FALSE,2,552.5,2257.300000011921,2809.800000011921,408,0,-1.7825257434856918,1,0.17680656408753276
w50a5f2a,correct,2556,588.7000000178814,1527,NA,1527,FALSE,2,588.7000000178814,1527,2115.7000000178814,409,1,0.6225777096187622,1,0.21033377095005537
w50a5f2a,correct,2597.7000000178814,610.7000000178814,1540.5,NA,1540.5,FALSE,2,610.7000000178814,1540.5,2151.2000000178814,410,1,0.799426627906279,1,0.14698655403620325
w50a5f2a,correct,2282.5,490,1365.2000000178814,NA,1365.2000000178814,FALSE,2,490,1365.2000000178814,1855.2000000178814,411,0,-1.7825257434856918,1,0.6989598477275045
w50a5f2a,correct,2147.0999999940395,521.5,1280.300000011921,NA,1280.300000011921,FALSE,2,521.5,1280.300000011921,1801.800000011921,412,0,-1.7825257434856918,1,0.7976134846507766
w50a5f2a,correct,3037.9000000059605,514,741.4000000059605,1370.9000000059605,1370.9000000059605,TRUE,3,1884.9000000059605,741.4000000059605,2626.300000011921,413,1,0.4924235926180286,1,0.25586494717326874
w50a5f2a,correct,2580.5999999940395,470.19999998807907,1552.2000000178814,NA,1552.2000000178814,FALSE,2,470.19999998807907,1552.2000000178814,2022.4000000059605,414,1,0.4135119111774052,1,0.7111415651922552
w50a5f2a,correct,2695.9000000059605,663.4000000059605,434,1119.699999988079,1119.699999988079,TRUE,3,1783.0999999940395,434,2217.0999999940395,415,1,0.6997674838298767,1,0.6036367848213732
w50a5f2a,empty,7638,679.9000000059605,1255.3999999761581,1577,2756.7000000178814,FALSE,4,2256.9000000059605,4012.0999999940395,6269,416,0,-1.7825257434856918,0,-1.7825257434856918
w50a5f2a,correct,6557.5999999940395,629.6999999880791,2478,2066.4000000059605,1179,FALSE,4,2696.0999999940395,3657,6353.0999999940395,417,0,-1.7825257434856918,1,7.427079345779274e-4
w50a5f2a,correct,2807.5999999940395,889.5999999940395,652.5999999940395,860,860,TRUE,3,1749.5999999940395,652.5999999940395,2402.199999988079,418,1,0.7489929174896162,1,0.47300526209330923
w5c1050d,empty,NA,NA,NA,NA,NA,NA,0,0,0,0,419,NA,NA,NA,NA
w5c1050d,correct,5760.799999999814,2145,689.7999999998137,1967.800000000745,1967.800000000745,TRUE,3,4112.800000000745,689.7999999998137,4802.600000000559,420,1,0.29001644844926755,0,-2.1957105716896965
w5c1050d,correct,6344.899999999441,1483.0999999996275,1154.6000000005588,629.8999999994412,1250.2000000001863,TRUE,4,2112.9999999990687,2404.800000000745,4517.799999999814,421,1,0.7398473257895016,1,0.6101285574212107
w5c1050d,intrusion,6525.299999999814,719.5,3179.7999999998137,NA,3179.7999999998137,TRUE,2,719.5,3179.7999999998137,3899.2999999998137,422,1,-0.45966432314567013,1,0.6079779776408962
w5c1050d,other,7366.0999999996275,869.2999999998137,1815.5,360.40000000037253,3195,TRUE,5,4424.700000000186,2639.899999999441,7064.5999999996275,423,0,-2.1957105716896965,1,0.22475224863533286
w5c1050d,correct,4170.700000000186,779.2000000001863,2100.699999999255,389.40000000037253,389.40000000037253,TRUE,3,1168.6000000005588,2100.699999999255,3269.2999999998137,424,1,0.7617034177187799,1,0.7047433709775666
w5c1050d,correct,3286.4000000003725,734.4000000003725,1679.9000000003725,NA,1679.9000000003725,FALSE,2,734.4000000003725,1679.9000000003725,2414.300000000745,425,1,0.4652670896241326,1,0.7008926428423259
w5c1050d,correct,3570.9000000003725,884.6000000005588,1965.199999999255,NA,1965.199999999255,FALSE,2,884.6000000005588,1965.199999999255,2849.7999999998137,426,1,0.6039995064236429,1,0.5456372904766295
w5c1050d,correct,3135.2000000001863,539.9000000003725,1004.4000000003725,839.8999999994412,839.8999999994412,TRUE,3,1379.7999999998137,1004.4000000003725,2384.2000000001863,427,1,0.19184194322315198,0,-2.1957105716896965
w5c1050d,correct,3884.900000000373,689.1000000005588,675.1999999992549,1469.7000000001863,1469.7000000001863,TRUE,3,2158.800000000745,675.1999999992549,2834,428,1,0.26127462530913675,0.5,-1.1399200563346499
w5c1050d,correct,2865.7000000001863,629.4000000003725,600,990,990,TRUE,3,1619.4000000003725,600,2219.4000000003725,429,1,0.6820094419883747,1,0.4232540562218968
w5c1050d,correct,3345.4000000003725,838.8000000007451,1185.199999999255,884.8000000007451,884.8000000007451,TRUE,3,1723.6000000014901,1185.199999999255,2908.800000000745,430,1,0.5995393889554563,1,-0.07996682219646645
w5c1050d,correct,3390.7999999998137,764.4000000003725,1800.0999999996275,NA,1800.0999999996275,FALSE,2,764.4000000003725,1800.0999999996275,2564.5,431,1,0.6443314344771285,1,0.18738205700801353
w5c1050d,correct,3090.600000000559,809.2000000001863,1559.9000000003725,NA,1559.9000000003725,FALSE,2,809.2000000001863,1559.9000000003725,2369.100000000559,432,0,-2.1957105716896965,1,0.624303850490029
w5c1050d,correct,2835.600000000559,704.7000000001863,1664.6000000005588,NA,1664.6000000005588,FALSE,2,704.7000000001863,1664.6000000005588,2369.300000000745,433,1,0.19307794624762686,1,0.6238823954554367
w5c1050d,correct,3645.100000000559,824,1395.2999999998137,916.2000000001863,916.2000000001863,TRUE,3,1740.2000000001863,1395.2999999998137,3135.5,434,1,0.6683380086466578,1,0.3142153291070301
w5c1050d,intrusion,11085.5,749.2000000001863,787.0999999996275,1319.7000000001863,1095,TRUE,9,5895,4364.299999999814,10259.299999999814,435,0,-2.1957105716896965,0,-2.1957105716896965
w5c1050d,correct,2472.7000000001863,749.1000000005588,1379.0999999996275,NA,1379.0999999996275,FALSE,2,749.1000000005588,1379.0999999996275,2128.2000000001863,436,1,4.277590236911678e-4,1,0.6653375278048048
w5c1050d,correct,3315.0999999996275,688.5,1395.3999999994412,884.5,884.5,TRUE,3,1573,1395.3999999994412,2968.399999999441,437,1,0.47825672976574485,1,0.026945026084884603
w1df6428,correct,2822.9000000059605,2109.9000000059605,NA,NA,2109.9000000059605,TRUE,1,2109.9000000059605,0,2109.9000000059605,438,1,0.5319086864749007,1,-0.021194791902054512
w1df6428,correct,2756.5,780.4000000059605,352.90000000596046,1234.0999999940395,1234.0999999940395,TRUE,3,2014.5,352.90000000596046,2367.4000000059605,439,1,0.24474175495442324,1,0.6533404884230994
w1df6428,correct,2055.899999976158,1341.199999988079,NA,NA,1341.199999988079,TRUE,1,1341.199999988079,0,1341.199999988079,440,1,0.2880442510496291,1,0.596344903514481
w1df6428,correct,2820.399999976158,928.3999999761581,1397.9000000059605,NA,1397.9000000059605,FALSE,2,928.3999999761581,1397.9000000059605,2326.2999999821186,441,1,0.20560201124565966,1,0.5944243713936993
w1df6428,correct,1842.4000000059605,1539.7000000178814,NA,NA,1539.7000000178814,TRUE,1,1539.7000000178814,0,1539.7000000178814,442,1,0.38704953703763234,1,-0.427105469426309
w1df6428,correct,2579,831.0999999940395,1381.800000011921,NA,1381.800000011921,FALSE,2,831.0999999940395,1381.800000011921,2212.9000000059605,443,0,-3.192090796796386,1,0.5186601004875576
w1df6428,correct,2454.5999999940395,645.5999999940395,486.90000000596046,912.2999999821186,912.2999999821186,TRUE,3,1557.8999999761581,486.90000000596046,2044.7999999821186,444,1,0.5046686811959059,1,0.13742007437974033
w1df6428,correct,2177.4000000059605,622.2000000178814,1342.5,NA,1342.5,FALSE,2,622.2000000178814,1342.5,1964.7000000178814,445,1,0.3585386918840974,1,0.2268833478500888
w1df6428,correct,1626,1213.0999999940395,NA,NA,1213.0999999940395,TRUE,1,1213.0999999940395,0,1213.0999999940395,446,1,0.28925184438305523,1,0.4865656686378053
w1df6428,correct,2226,625.8000000119209,1289.199999988079,NA,1289.199999988079,FALSE,2,625.8000000119209,1289.199999988079,1915,447,1,0.5724627222424425,1,0.5254215020871941
w1df6428,correct,2192.4000000059605,611.8000000119209,1354.9000000059605,NA,1354.9000000059605,FALSE,2,611.8000000119209,1354.9000000059605,1966.7000000178814,448,1,0.224218499224608,0.5,-1.5618117745273592
w1df6428,intrusion,NA,NA,NA,NA,NA,NA,0,0,0,0,449,NA,NA,NA,NA
w1df6428,correct,2213.699999988079,609,1415.7999999821186,NA,1415.7999999821186,FALSE,2,609,1415.7999999821186,2024.7999999821186,450,1,0.5052204228966167,1,0.5724136589261865
w1df6428,correct,1877.800000011921,430.5,1233.9000000059605,NA,1233.9000000059605,FALSE,2,430.5,1233.9000000059605,1664.4000000059605,451,1,0.404232431566394,1,0.5622353643129481
w1df6428,correct,2064.600000023842,490.2000000178814,1379.699999988079,NA,1379.699999988079,FALSE,2,490.2000000178814,1379.699999988079,1869.9000000059605,452,1,0.3375997079553324,1,0.2605053550326153
w1df6428,correct,1754.2000000178814,1363,NA,NA,1363,TRUE,1,1363,0,1363,453,1,-0.4533397636614477,1,-0.10480916136804089
w1df6428,correct,1988,621.1999999880791,1116.699999988079,NA,1116.699999988079,FALSE,2,621.1999999880791,1116.699999988079,1737.8999999761581,454,0,-3.192090796796386,1,0.4703105705349213
w1df6428,correct,1859.7000000178816,451.5,1059.0999999940395,NA,1059.0999999940395,FALSE,2,451.5,1059.0999999940395,1510.5999999940395,455,1,0.21248218515112616,1,0.23670473534175232
w1df6428,correct,3436.4000000059605,1938.300000011921,449,837,837,TRUE,3,2775.300000011921,449,3224.300000011921,456,1,0.4971843569889648,1,0.2213938000132251
w133cdda,correct,3804.399999856949,2980.7999999523163,NA,NA,2980.7999999523163,TRUE,1,2980.7999999523163,0,2980.7999999523163,457,1,0.9552926943179918,1,0.5859467963555801
w133cdda,correct,4005.599999904633,810.2000000476837,2289.699999809265,NA,2289.699999809265,FALSE,2,810.2000000476837,2289.699999809265,3099.899999856949,458,0,-1.96846681354476,1,0.35326677797666173
w133cdda,correct,4292,915.2000000476837,641.4000000953674,2389.7000000476837,2389.7000000476837,TRUE,3,3304.9000000953674,641.4000000953674,3946.300000190735,459,1,0.3697243848755207,0,-1.96846681354476
w133cdda,correct,2265.2000000476837,1729.2000000476837,NA,NA,1729.2000000476837,TRUE,1,1729.2000000476837,0,1729.2000000476837,460,1,0.5900497512346157,0,-1.96846681354476
w133cdda,correct,3752.399999856949,656.2999999523163,1848.3999998569489,NA,1848.3999998569489,FALSE,2,656.2999999523163,1848.3999998569489,2504.699999809265,461,0,-1.96846681354476,0.5,-0.8566173392479213
w133cdda,correct,4304.200000047684,1304.9000000953674,737.7999999523163,1268.7999999523163,1268.7999999523163,TRUE,3,2573.7000000476837,737.7999999523163,3311.5,462,1,0.9378282508641627,1,0.29284529124824954
w133cdda,correct,3818.399999856949,884.5,619.2999999523163,1931.7999999523163,1931.7999999523163,TRUE,3,2816.2999999523163,619.2999999523163,3435.5999999046326,463,1,0.471884121892914,1,0.5669288045940303
w133cdda,correct,3021.7999999523163,992.4000000953674,1634,NA,1634,FALSE,2,992.4000000953674,1634,2626.4000000953674,464,1,0.06547117007507162,1,0.7186608521773605
w133cdda,correct,3287.2000000476837,1278.9000000953674,1563.2999999523163,NA,1563.2999999523163,FALSE,2,1278.9000000953674,1563.2999999523163,2842.2000000476837,465,0.5,-0.9121391611302526,1,0.6638683747372331
w133cdda,other,5210.599999904633,587.2000000476837,3955.699999809265,NA,3955.699999809265,FALSE,2,587.2000000476837,3955.699999809265,4542.899999856949,466,0,-1.96846681354476,0,-1.96846681354476
w133cdda,correct,2046.5,1681.9000000953674,NA,NA,1681.9000000953674,TRUE,1,1681.9000000953674,0,1681.9000000953674,467,1,0.6326079448663774,1,0.5346629643709441
w133cdda,correct,2694.900000095367,608,1689.2999999523163,NA,1689.2999999523163,FALSE,2,608,1689.2999999523163,2297.2999999523163,468,1,-0.10746622596075212,1,0.7411315066534093
w133cdda,correct,3516.899999856949,1588.5999999046326,1657.2999999523163,NA,1657.2999999523163,FALSE,2,1588.5999999046326,1657.2999999523163,3245.899999856949,469,1,0.4157818677630491,1,0.6316894158297697
w133cdda,correct,2757.7000000476837,804.5,1575.7000000476837,NA,1575.7000000476837,FALSE,2,804.5,1575.7000000476837,2380.2000000476837,470,1,-0.31213058015630285,1,0.22352742419954616
w133cdda,correct,2828.7000000476837,864.8999998569489,1530.3000001907349,NA,1530.3000001907349,FALSE,2,864.8999998569489,1530.3000001907349,2395.2000000476837,471,1,0.4941066404868206,1,0.7923366493372274
w133cdda,correct,3086,642.2999999523163,2007.7999999523163,NA,2007.7999999523163,FALSE,2,642.2999999523163,2007.7999999523163,2650.0999999046326,472,1,0.5786540688335068,1,0.7814977818036805
w133cdda,correct,3568.7000000476837,1614.2999999523163,684.8000001907349,987,987,TRUE,3,2601.2999999523163,684.8000001907349,3286.100000143051,473,1,0.28557146201121014,1,0.579722876286008
w133cdda,correct,4168.700000047684,974.7000000476837,995.2000000476837,1607.0999999046326,1607.0999999046326,TRUE,3,2581.7999999523163,995.2000000476837,3577,474,1,0.3694192823051408,0,-1.96846681354476
w133cdda,correct,1971.3999998569489,1739.7999999523163,NA,NA,1739.7999999523163,TRUE,1,1739.7999999523163,0,1739.7999999523163,475,1,0.23029853452521615,1,0.4380072353938012
w596775d,correct,4513.299999952316,1018.1999998092651,666.3000001907349,1393.3999998569489,1393.3999998569489,TRUE,3,2411.599999666214,666.3000001907349,3077.899999856949,476,1,1.4017459310466855,1,0.853610146321052
w596775d,correct,4778.200000047684,1095.9000000953674,1045.3999998569489,2075.7000000476837,2075.7000000476837,TRUE,3,3171.600000143051,1045.3999998569489,4217,477,1,1.4072764966343034,1,1.2923825615184035
w596775d,correct,4668.900000095367,965,531.6000001430511,2078.699999809265,2078.699999809265,TRUE,3,3043.699999809265,531.6000001430511,3575.2999999523163,478,1,1.0673778492426924,1,1.2484306136248793
w596775d,correct,3069.899999856949,648.7999999523163,533.7999999523163,1401.2000000476837,1401.2000000476837,TRUE,3,2050,533.7999999523163,2583.7999999523163,479,1,1.4836517722341447,0,-0.7994404035296268
w596775d,other,3648.799999952316,692.5,2063.9000000953674,NA,2063.9000000953674,FALSE,2,692.5,2063.9000000953674,2756.4000000953674,480,0,-0.7994404035296268,0,-0.7994404035296268
w596775d,other,4064.900000095367,791.5,789.1000001430511,1736.2000000476837,1736.2000000476837,TRUE,3,2527.7000000476837,789.1000001430511,3316.800000190735,481,0,-0.7994404035296268,0,-0.7994404035296268
w596775d,intrusion,7848.400000095367,742.6000001430511,4529.299999952316,NA,4529.299999952316,FALSE,2,742.6000001430511,4529.299999952316,5271.900000095367,482,0,-0.7994404035296268,0,-0.7994404035296268
w596775d,correct,3212.900000095367,758.8000001907349,1788.5,NA,1788.5,FALSE,2,758.8000001907349,1788.5,2547.300000190735,483,0,-0.7994404035296268,1,1.2863812411540667
w596775d,other,5671.799999952316,1034.0999999046326,3610.2000000476837,NA,3610.2000000476837,FALSE,2,1034.0999999046326,3610.2000000476837,4644.299999952316,484,0,-0.7994404035296268,0,-0.7994404035296268
w596775d,correct,4354,970.2000000476837,2546.2999999523163,NA,2546.2999999523163,FALSE,2,970.2000000476837,2546.2999999523163,3516.5,485,0,-0.7994404035296268,1,1.0037823601796088
w596775d,correct,3152.7999999523163,866.5,1860.7999999523163,NA,1860.7999999523163,FALSE,2,866.5,1860.7999999523163,2727.2999999523163,486,0,-0.7994404035296268,1,1.472222304720623
w596775d,correct,3407.5,997.3000001907349,1569.3999998569489,NA,1569.3999998569489,FALSE,2,997.3000001907349,1569.3999998569489,2566.7000000476837,487,0,-0.7994404035296268,1,0.9592349516100627
w596775d,other,5802.299999952316,859.5,1364.5,2900.7000000476837,2900.7000000476837,TRUE,3,3760.2000000476837,1364.5,5124.700000047684,488,0,-0.7994404035296268,0,-0.7994404035296268
w596775d,other,5967.700000047684,838.2999999523163,2104.800000190735,NA,2104.800000190735,TRUE,2,838.2999999523163,2104.800000190735,2943.100000143051,489,0,-0.7994404035296268,0,-0.7994404035296268
w596775d,other,6072.199999809265,1639.7999999523163,3668.7999999523163,NA,3668.7999999523163,FALSE,2,1639.7999999523163,3668.7999999523163,5308.599999904633,490,0,-0.7994404035296268,0,-0.7994404035296268
w596775d,correct,3410.2999999523163,787.4000000953674,424.19999980926514,1428.9000000953674,1428.9000000953674,TRUE,3,2216.300000190735,424.19999980926514,2640.5,491,1,1.163005247093494,1,1.2910899077711984
w596775d,correct,3299.5,1192.1000001430511,526.1999998092651,923.6000001430511,923.6000001430511,TRUE,3,2115.7000002861023,526.1999998092651,2641.9000000953674,492,1,1.3135576086780194,0,-0.7994404035296268
w596775d,correct,3092.2999999523163,812.9000000953674,1825.2999999523163,NA,1825.2999999523163,FALSE,2,812.9000000953674,1825.2999999523163,2638.2000000476837,493,0,-0.7994404035296268,1,1.1056343712522718
w596775d,other,3268,763.5,381.2000000476837,1464.2000000476837,1464.2000000476837,TRUE,3,2227.7000000476837,381.2000000476837,2608.9000000953674,494,0,-0.7994404035296268,1,0.8371863216295451
wcc0f8d5,correct,3755.299999237061,1082.7999992370605,2238.8999996185303,NA,2238.8999996185303,FALSE,2,1082.7999992370605,2238.8999996185303,3321.699998855591,495,0,-1.2136897461630811,1,0.9089185678529662
wcc0f8d5,intrusion,7902.60000038147,890.8000011444092,2628.599998474121,2439.400001525879,714.3999996185303,TRUE,5,4044.6000022888184,3497.299997329712,7541.89999961853,496,0,-1.2136897461630811,0,-1.2136897461630811
wcc0f8d5,correct,2990.199998855591,811.6000003814697,1819,NA,1819,FALSE,2,811.6000003814697,1819,2630.6000003814697,497,0,-1.2136897461630811,1,0.7508487625513686
wcc0f8d5,correct,3389.5,526.2000007629395,1009.6999988555908,1545.6000003814697,1545.6000003814697,TRUE,3,2071.800001144409,1009.6999988555908,3081.5,498,1,0.5179621084824133,1,0.8709266599877326
wcc0f8d5,correct,2535.2999992370605,491.8999996185303,1569,NA,1569,FALSE,2,491.8999996185303,1569,2060.8999996185303,499,0,-1.2136897461630811,1,0.7581891986071435
wcc0f8d5,correct,2261.7000007629395,489.5,1392.5,NA,1392.5,FALSE,2,489.5,1392.5,1882,500,1,0.4012693803056466,1,1.014765289164087
wcc0f8d5,correct,2391.3999996185303,524.3999996185303,812.8000011444092,574.6999988555908,574.6999988555908,TRUE,3,1099.099998474121,812.8000011444092,1911.8999996185303,501,1,0.7462665471881718,0.5,-0.2695995057676745
wcc0f8d5,correct,2346,592.3999996185303,1325,NA,1325,FALSE,2,592.3999996185303,1325,1917.3999996185303,502,0,-1.2136897461630811,1,0.6430164363774549
wcc0f8d5,correct,2481.2000007629395,617.7000007629395,629.5,859.5999984741211,859.5999984741211,TRUE,3,1477.2999992370605,629.5,2106.7999992370605,503,1,0.9567076174819876,1,0.9586552849143315
wcc0f8d5,correct,2297.300001144409,548.1000003814697,550,774.8999996185303,774.8999996185303,TRUE,3,1323,550,1873,504,1,1.0847597584664663,1,0.7553654699672261
wcc0f8d5,correct,2147.300001144409,553.2000007629395,1141.2999992370605,NA,1141.2999992370605,FALSE,2,553.2000007629395,1141.2999992370605,1694.5,505,0,-1.2136897461630811,1,0.6714638423081426
wcc0f8d5,correct,2137.300001144409,523.1000003814697,1139.5,NA,1139.5,FALSE,2,523.1000003814697,1139.5,1662.6000003814697,506,0,-1.2136897461630811,1,1.216942252118019
wcc0f8d5,correct,2667,563.3000011444092,790.6000003814697,518.6999988555908,518.6999988555908,TRUE,3,1082,790.6000003814697,1872.6000003814697,507,1,1.0976841455159232,0,-1.2136897461630811
wcc0f8d5,correct,2302.2000007629395,454,799.6000003814697,729.6000003814697,729.6000003814697,TRUE,3,1183.6000003814697,799.6000003814697,1983.2000007629395,508,1,0.9616644281793072,0,-1.2136897461630811
wcc0f8d5,correct,2400.8999996185303,592.2999992370605,1404.2000007629395,NA,1404.2000007629395,FALSE,2,592.2999992370605,1404.2000007629395,1996.5,509,0,-1.2136897461630811,1,-0.11235783221199146
wcc0f8d5,correct,2806.7000007629395,673.7999992370605,1693.900001525879,NA,1693.900001525879,FALSE,2,673.7999992370605,1693.900001525879,2367.7000007629395,510,0,-1.2136897461630811,1,-0.06304451136326315
wcc0f8d5,other,4627.10000038147,553,899.3000011444092,1184.5,485.6999988555908,TRUE,5,2223.199998855591,1818.8000011444092,4042,511,0,-1.2136897461630811,0,-1.2136897461630811
wcc0f8d5,correct,1930.5,506.5,934.6000003814697,NA,934.6000003814697,FALSE,2,506.5,934.6000003814697,1441.1000003814697,512,0,-1.2136897461630811,1,0.9992822571880771
wcc0f8d5,correct,2047.3999996185305,484.20000076293945,449.1000003814697,700.2999992370605,700.2999992370605,TRUE,3,1184.5,449.1000003814697,1633.6000003814697,513,1,1.0291356180337523,1,0.9671785154066882
wdd049e2,timeout,14519.299999999814,799.3999999994412,1759.800000000745,3210.5,1390,NA,5,5399.899999999441,8479.400000000373,13879.299999999814,514,0,-2.25073651851247,1,-0.7633382010625978
wdd049e2,correct,3449.2000000001863,559.2999999998137,2190.7000000001863,NA,2190.7000000001863,FALSE,2,559.2999999998137,2190.7000000001863,2750,515,0.5,-1.3471297618673204,1,0.2210695362048486
wdd049e2,correct,3599.600000000559,619.6000000005588,389.8999999994412,590,1170.6000000005588,FALSE,4,1209.6000000005588,1560.5,2770.100000000559,516,1,-0.12708501681844622,1,0.9749511308894909
wdd049e2,correct,3179.600000000559,789.6000000005588,1690.0999999996275,NA,1690.0999999996275,FALSE,2,789.6000000005588,1690.0999999996275,2479.7000000001863,517,1,-1.6861300147266842,1,0.4216127997487259
wdd049e2,correct,3628.899999999441,1439.2000000001863,1549.8999999994412,NA,1549.8999999994412,FALSE,2,1439.2000000001863,1549.8999999994412,2989.0999999996275,518,0,-2.25073651851247,1,0.699987203054906
wdd049e2,correct,3989.600000000559,719.5,680,1940.4000000003725,1940.4000000003725,TRUE,3,2659.9000000003725,680,3339.9000000003725,519,0.5,-0.711424084054762,0,-2.25073651851247
wdd049e2,correct,2549.600000000559,529.6000000005588,1499.7999999998137,NA,1499.7999999998137,FALSE,2,529.6000000005588,1499.7999999998137,2029.4000000003725,520,1,0.703663340159241,1,0.4653226900824468
wdd049e2,correct,3409.2000000001863,589.1000000005588,2330.2999999998137,NA,2330.2999999998137,FALSE,2,589.1000000005588,2330.2999999998137,2919.4000000003725,521,0,-2.25073651851247,1,-1.3071916603380762
wdd049e2,correct,2819.199999999255,550.3999999994412,419.20000000018626,1279.4000000003725,1279.4000000003725,TRUE,3,1829.7999999998137,419.20000000018626,2249,522,1,0.5253354238467172,1,-0.001763211306837563
wdd049e2,correct,2619.100000000559,739.1000000005588,1580.5999999996275,NA,1580.5999999996275,FALSE,2,739.1000000005588,1580.5999999996275,2319.7000000001863,523,1,0.43841667783266514,1,0.036595603085574906
wdd049e2,correct,2929.300000000745,710.4000000003725,638.9000000003725,970.0999999996275,970.0999999996275,TRUE,3,1680.5,638.9000000003725,2319.4000000003725,524,1,0.776393432040663,1,-0.30947420531860026
wdd049e2,correct,3339.5,609.7999999998137,1109.5,1080.1000000005588,1080.1000000005588,TRUE,3,1689.9000000003725,1109.5,2799.4000000003725,525,1,0.13904175647560285,1,0.6126398688006423
wdd049e2,correct,2508.9000000003725,709.0999999996275,1500.4000000003725,NA,1500.4000000003725,FALSE,2,709.0999999996275,1500.4000000003725,2209.5,526,1,0.684036857240258,1,0.8947141797478096
wdd049e2,correct,3079.399999999441,610.0999999996275,1239.1000000005588,570.3999999994412,570.3999999994412,TRUE,3,1180.4999999990687,1239.1000000005588,2419.5999999996275,527,1,1.0016503827743914,1,0.690803072451962
wdd049e2,correct,3189.7000000001863,589.4000000003725,1240.2000000001863,829.2999999998137,829.2999999998137,TRUE,3,1418.7000000001863,1240.2000000001863,2658.9000000003725,528,1,-0.5308725101449223,1,0.49867433496107666
wdd049e2,correct,2749.5999999996275,509.59999999962747,780.5999999996275,1109.5,1109.5,TRUE,3,1619.0999999996275,780.5999999996275,2399.699999999255,529,1,0.7038175302787003,1,0.1651306642251016
wdd049e2,correct,2329.9000000003725,539.7000000001863,1429.8999999994412,NA,1429.8999999994412,FALSE,2,539.7000000001863,1429.8999999994412,1969.5999999996275,530,1,0.6863645807988161,1,0.6623899918602608
wdd049e2,correct,3590.2000000001863,869.2999999998137,2159.9000000003725,NA,2159.9000000003725,FALSE,2,869.2999999998137,2159.9000000003725,3029.2000000001863,531,1,0.23742679517037274,1,0.5710062586344055
wdd049e2,correct,2619.0999999996275,530.4000000003725,958.8999999994412,780.2000000001863,780.2000000001863,TRUE,3,1310.6000000005588,958.8999999994412,2269.5,532,1,0.7996836632761348,1,0.7330208719153725
weaf785a,correct,3168.600000023842,539.5,2068.7999999523163,NA,2068.7999999523163,FALSE,2,539.5,2068.7999999523163,2608.2999999523163,533,1,0.7426418209650022,1,0.49137689299970055
weaf785a,correct,2937.1999999284744,2532.100000023842,NA,NA,2532.100000023842,TRUE,1,2532.100000023842,0,2532.100000023842,534,1,0.3291391818583185,1,0.49457844314004856
weaf785a,correct,3312.8000000715256,571,1875.8000000715256,NA,1875.8000000715256,FALSE,2,571,1875.8000000715256,2446.8000000715256,535,1,-0.5034543993022184,1,0.642269842374529
weaf785a,correct,3180.599999904633,682.1999999284744,607.2000000476837,1586.1000000238419,1586.1000000238419,TRUE,3,2268.2999999523163,607.2000000476837,2875.5,536,1,0.608805893789375,1,0.5756571833344759
weaf785a,empty,3530.1999999284744,477.2999999523163,2757.2000000476837,NA,2757.2000000476837,TRUE,2,477.2999999523163,2757.2000000476837,3234.5,537,0,-2.453465186672545,0,-2.453465186672545
weaf785a,correct,2574.5,481.39999997615814,1633.9000000953674,NA,1633.9000000953674,FALSE,2,481.39999997615814,1633.9000000953674,2115.3000000715256,538,0.5,-1.1354897191072555,1,0.5778928974456822
weaf785a,correct,2551.7999999523163,506.5,1803.1999999284744,NA,1803.1999999284744,FALSE,2,506.5,1803.1999999284744,2309.6999999284744,539,1,0.2752773731512533,1,0.32302368010724136
weaf785a,correct,3628.100000023842,637.5,644.8999999761581,1818.6000000238419,1818.6000000238419,TRUE,3,2456.100000023842,644.8999999761581,3101,540,1,0.31737865246125846,1,0.2761703260104928
weaf785a,correct,2445.2000000476837,595.8999999761581,420.3000000715256,1126.3999999761581,1126.3999999761581,TRUE,3,1722.2999999523163,420.3000000715256,2142.600000023842,541,1,0.6165727357421519,1,0.6253586142554812
weaf785a,correct,2435.7999999523163,692.6000000238419,1368.6999999284744,NA,1368.6999999284744,FALSE,2,692.6000000238419,1368.6999999284744,2061.2999999523163,542,1,0.6544735941889751,1,0.6851262327805299
weaf785a,correct,3847.200000047684,1009.6000000238419,499.7999999523163,321.8000000715256,1230.2999999523163,TRUE,5,2561.7000000476837,835.6999999284744,3397.399999976158,543,1,0.6825613674954778,1,0.2660890719143691
weaf785a,intrusion,3295.5,526.5,903.6000000238419,1670.8999999761581,1670.8999999761581,TRUE,3,2197.399999976158,903.6000000238419,3101,544,0,-2.453465186672545,1,-0.1792435083966712
weaf785a,correct,2223.399999976158,153.69999992847443,553.6000000238419,1187.8999999761581,1187.8999999761581,TRUE,3,1341.5999999046326,553.6000000238419,1895.1999999284744,545,1,0.37050069907447397,1,0.07374387338224622
weaf785a,correct,2463.3000000715256,502.10000002384186,1400.1000000238419,NA,1400.1000000238419,FALSE,2,502.10000002384186,1400.1000000238419,1902.2000000476837,546,1,0.3991495344189723,1,0.5309131243105448
weaf785a,correct,3692.1999999284744,1751,498.1999999284744,547.6000000238419,547.6000000238419,TRUE,3,2298.600000023842,498.1999999284744,2796.7999999523163,547,1,0.4417970453099343,1,0.047676975192383564
weaf785a,correct,2514.7000000476837,422.2000000476837,1789,NA,1789,FALSE,2,422.2000000476837,1789,2211.2000000476837,548,1,0.2197691622986122,1,0.5205731234553148
weaf785a,correct,2001,427.10000002384186,1265.8999999761581,NA,1265.8999999761581,FALSE,2,427.10000002384186,1265.8999999761581,1693,549,0,-2.453465186672545,1,0.5972501186216418
weaf785a,correct,2698.7000000476837,463.39999997615814,461.10000002384186,1206.3999999761581,1206.3999999761581,TRUE,3,1669.7999999523163,461.10000002384186,2130.899999976158,550,1,0.23455055911392142,1,0.5877175541475533
weaf785a,correct,2489.100000023842,749,1331.7000000476837,NA,1331.7000000476837,FALSE,2,749,1331.7000000476837,2080.7000000476837,551,0,-2.453465186672545,1,0.38659386573524024
w7a95cdf,timeout,NA,361,418,478,936,NA,30,6689,8485,15174,552,0.5,-0.7907680046569313,1,1.6215707068885836
w7a95cdf,correct,11360,1462,836,6916,6916,TRUE,3,8378,836,9214,553,0.5,0.013135478216624566,0.5,-0.35879841528190193
w7a95cdf,timeout,NA,661,12073,2472,2472,NA,3,3133,12073,15206,554,1,0.544841699118631,0.5,-1.151100350006373
w7a95cdf,correct,9696,559,8119,NA,8119,FALSE,2,559,8119,8678,555,1,1.0949677662476685,1,1.4974446524379488
w7a95cdf,correct,5714,547,4405,NA,4405,FALSE,2,547,4405,4952,556,0,-1.2934415482088983,1,0.8015080960843503
w7a95cdf,correct,7949,366,7145,NA,7145,FALSE,2,366,7145,7511,557,0.5,-0.6709761994381591,0.5,-0.2615529419299624
w7a95cdf,correct,4150,232,3131,NA,3131,FALSE,2,232,3131,3363,558,0.5,-0.5106295893124037,0.5,-0.2755274002060249
w7a95cdf,correct,6095,389,1221,3194,3194,TRUE,3,3583,1221,4804,559,1,0.6681363474483418,0.5,-0.771026042253005
w7a95cdf,correct,6256,619,5147,NA,5147,FALSE,2,619,5147,5766,560,0.5,-0.2937086999592358,1,1.8134695709180395
w7a95cdf,correct,12429,434,1354,9959,9959,TRUE,3,10393,1354,11747,561,0.5,-0.08117559151945516,0.5,-1.1960803173954346
w7a95cdf,timeout,NA,626,1313,13245,13245,NA,3,13871,1313,15184,562,1,1.7863386299712887,0.5,-0.6238059625817176
w7a95cdf,correct,10702,629,1151,7021,7021,TRUE,3,7650,1151,8801,563,1,1.9135413672047348,1,0.8342795022584961
w7a95cdf,correct,8911,403,847,6958,6958,TRUE,3,7361,847,8208,564,1,0.8091235981273064,0.5,-0.8590913559400525
w7a95cdf,correct,11065,301,755,519,8819,FALSE,4,820,9574,10394,565,0,-1.2934415482088983,0.5,0.3566772607453834
w7a95cdf,timeout,NA,1291,13944,NA,13944,NA,2,1291,13944,15235,566,0,-1.2934415482088983,0.5,0.2021406538630626
w7a95cdf,correct,8201,314,7081,NA,7081,FALSE,2,314,7081,7395,567,1,0.12813561589513606,1,1.6937698690970502
w7a95cdf,correct,6000,558,1238,3922,3922,TRUE,3,4480,1238,5718,568,0.5,0.010976965523622654,0.5,0.05023819680892911
w7a95cdf,correct,3355,576,2474,NA,2474,FALSE,2,576,2474,3050,569,0,-1.2934415482088983,1,0.45943864811870827
w7a95cdf,intrusion,7514,681,1037,5480,5480,FALSE,3,6161,1037,7198,570,0.5,-0.7508063546954779,0,-1.2934415482088983
