wid,response_type,raw_rt,first_pres_time,second_pres_time,third_pres_time,last_pres_time,choose_first,n_pres,total_first,total_second,rt,trial_id,pretest_accuracy_first,strength_first,pretest_accuracy_second,strength_second
w91a24bf,correct,3935.265000007348,1079.9450000049546,743.3000000019092,1176.0150000045542,1176.0150000045542,TRUE,3,2255.960000009509,743.3000000019092,2999.260000011418,1,1,0.9848439319071374,0,-1.056683270473115
w91a24bf,correct,2407.7999999863096,487.54500001086853,1200.104999996256,NA,1200.104999996256,FALSE,2,487.54500001086853,1200.104999996256,1687.6500000071246,4,0,-1.056683270473115,1,1.074443935295039
w91a24bf,correct,2655.429999984335,607.2749999875668,304.01000002166256,1009.1200000024401,1009.1200000024401,TRUE,3,1616.394999990007,304.01000002166256,1920.4050000116695,5,1,1.198317718932554,1,0.7436965711920078
w91a24bf,correct,2647.3800000094343,607.3600000236183,263.98499999777414,1175.9999999776483,1175.9999999776483,TRUE,3,1783.3600000012666,263.98499999777414,2047.3449999990407,6,1,0.9259933223205893,1,0.8239986879148536
w91a24bf,correct,2463.2500000006985,535.1899999950547,1104.0199999988545,NA,1104.0199999988545,FALSE,2,535.1899999950547,1104.0199999988545,1639.2099999939092,7,0,-1.056683270473115,1,1.0610392749453195
w91a24bf,correct,2407.8499999886844,559.4449999916833,624.0000000107102,720.1199999835808,720.1199999835808,TRUE,3,1279.564999975264,624.0000000107102,1903.5649999859743,8,1,0.733874282429131,0,-1.056683270473115
w91a24bf,correct,1959.370000025956,511.27500002621673,256.264999974519,719.8850000277162,719.8850000277162,TRUE,3,1231.160000053933,256.264999974519,1487.425000028452,9,1,0.839177929386109,1,1.2559222968032562
w91a24bf,correct,2287.3299999919254,511.5349999978207,1232.0900000049733,NA,1232.0900000049733,FALSE,2,511.5349999978207,1232.0900000049733,1743.625000002794,10,0,-1.056683270473115,1,0.9490138393526574
w91a24bf,correct,2623.985000012908,809.5350000075996,638.2600000069942,880.2900000009686,880.2900000009686,TRUE,3,1689.8250000085682,638.2600000069942,2328.0850000155624,12,1,0.7995590106923728,0,-1.056683270473115
w91a24bf,correct,2855.455000011716,399.20000001438893,1288.0949999962468,NA,1288.0949999962468,FALSE,2,399.20000001438893,1288.0949999962468,1687.2950000106357,13,0,-1.056683270473115,1,0.6268995798096493
w91a24bf,correct,1991.7500000155997,447.61999999172986,744.4300000206567,NA,744.4300000206567,FALSE,2,447.61999999172986,744.4300000206567,1192.0500000123866,14,0,-1.056683270473115,1,1.1291553032604078
w91a24bf,correct,2343.6600000131875,527.330000011716,304.03499997919425,423.95500000566244,664.0650000190362,FALSE,4,951.2850000173785,968.0999999982305,1919.385000015609,15,1,0.9980591837604423,1,1.0764501404897047
w91a24bf,correct,1855.5599999963304,294.98000000603497,360.50999999861233,648.0450000090059,648.0450000090059,TRUE,3,943.0250000150409,360.50999999861233,1303.5350000136532,17,1,1.091839661410377,0.5,-0.16004437948807002
w91a24bf,correct,2911.0899999795947,895.1949999900535,1744.1249999974389,NA,1744.1249999974389,FALSE,2,895.1949999900535,1744.1249999974389,2639.3199999874923,19,1,0.9608670627832284,1,0.9184805959882899
wf4da727,correct,3983.700000047684,783.8999998569489,622.1000001430511,1381.2000000476837,1381.2000000476837,TRUE,3,2165.0999999046326,622.1000001430511,2787.2000000476837,20,1,0.30648085506161077,1,-0.16080242507676304
wf4da727,correct,3573.100000143051,690.2000000476837,1901.7000000476837,NA,1901.7000000476837,FALSE,2,690.2000000476837,1901.7000000476837,2591.9000000953674,21,0,-3.284544455059542,1,-0.4441698696274498
wf4da727,correct,4027.199999809265,680.0999999046326,2670.2000000476837,NA,2670.2000000476837,FALSE,2,680.0999999046326,2670.2000000476837,3350.2999999523163,22,1,0.07958984309172,1,0.2031886983524222
wf4da727,correct,3775.399999856949,880.5999999046326,1929.7000000476837,NA,1929.7000000476837,FALSE,2,880.5999999046326,1929.7000000476837,2810.2999999523163,23,1,-0.08257097219790543,1,0.4032615320606887
wf4da727,correct,3224.7999999523163,717.0999999046326,1934.1000001430511,NA,1934.1000001430511,FALSE,2,717.0999999046326,1934.1000001430511,2651.2000000476837,24,1,0.3322109433126901,1,0.2986136322619643
wf4da727,correct,3795.899999856949,698.6999998092651,546,1933.8000001907349,1933.8000001907349,TRUE,3,2632.5,546,3178.5,25,1,0.4582064160597507,1,0.7090958218091437
wf4da727,correct,5039.799999952316,689.0999999046326,689.4000000953674,1560.5,1258.5,FALSE,4,2249.5999999046326,1947.9000000953674,4197.5,26,1,0.4717118293626408,1,0.2798831337502866
wf4da727,correct,4032.299999952316,905.5,672.0999999046326,1112.2000000476837,1112.2000000476837,TRUE,3,2017.7000000476837,672.0999999046326,2689.7999999523163,27,1,0.06699736352451219,1,0.40203022947247674
wf4da727,correct,3119.099999904633,698,636.1999998092651,438.90000009536743,850.7000000476837,FALSE,4,1136.9000000953674,1486.8999998569489,2623.7999999523163,28,1,-0.23067383528738072,1,0.5415702507991044
wf4da727,correct,3325.2000000476837,616.7000000476837,1541.2000000476837,NA,1541.2000000476837,FALSE,2,616.7000000476837,1541.2000000476837,2157.9000000953674,29,1,0.14942579143434948,1,0.26387183668418784
wf4da727,correct,3673.799999952316,800.2000000476837,2567.9000000953674,NA,2567.9000000953674,FALSE,2,800.2000000476837,2567.9000000953674,3368.100000143051,30,1,-0.7526251747017244,1,0.3740623031975307
wf4da727,correct,3179.399999856949,601.6999998092651,538.6000001430511,1434.2000000476837,1434.2000000476837,TRUE,3,2035.8999998569489,538.6000001430511,2574.5,31,1,0.7021202620042681,1,0.8002857745925163
wf4da727,correct,2752.5,615.6000001430511,651.0999999046326,975.7000000476837,975.7000000476837,TRUE,3,1591.3000001907349,651.0999999046326,2242.4000000953674,32,1,0.32189803055075644,1,0.3465143200816028
wf4da727,correct,2868.900000095367,642.5,1496.7000000476837,NA,1496.7000000476837,FALSE,2,642.5,1496.7000000476837,2139.2000000476837,33,0,-3.284544455059542,1,0.48750672155436003
wf4da727,correct,3466.2000000476837,749.7000000476837,2310.4000000953674,NA,2310.4000000953674,FALSE,2,749.7000000476837,2310.4000000953674,3060.100000143051,34,1,0.547607037806744,1,0.49259977847320346
wf4da727,correct,3148.899999856949,565.7999999523163,1901.0999999046326,NA,1901.0999999046326,FALSE,2,565.7999999523163,1901.0999999046326,2466.899999856949,35,1,0.17498814933876225,1,0.3206253585168604
wf4da727,correct,3178.400000095367,576.5999999046326,650.1000001430511,1689.0999999046326,1689.0999999046326,TRUE,3,2265.699999809265,650.1000001430511,2915.7999999523163,36,1,-0.30479466029812163,1,0.022337769951576845
wf4da727,correct,2693.7999999523163,556.7999999523163,758.4000000953674,843.2000000476837,843.2000000476837,TRUE,3,1400,758.4000000953674,2158.4000000953674,37,1,0.664729255708157,1,0.29420636336933786
wf4da727,correct,2858.800000190735,601.4000000953674,1545.7999999523163,NA,1545.7999999523163,FALSE,2,601.4000000953674,1545.7999999523163,2147.2000000476837,38,1,0.4281609186369741,1,0.6763557186223971
we986a69,correct,4385.700000047684,1316.3999999761581,1833.9000000953674,NA,1833.9000000953674,FALSE,2,1316.3999999761581,1833.9000000953674,3150.3000000715256,39,0,-0.9482054918947285,1,1.1765575852147496
we986a69,correct,2469.900000095367,2086.8000000715256,NA,NA,2086.8000000715256,TRUE,1,2086.8000000715256,0,2086.8000000715256,41,1,1.0166960441882966,1,1.592986465927989
we986a69,correct,2150.599999904633,1706.2999999523163,NA,NA,1706.2999999523163,TRUE,1,1706.2999999523163,0,1706.2999999523163,42,1,0.7307676875315124,1,0.8634977345556235
we986a69,correct,3558.900000095367,746.4000000953674,2035.0999999046326,NA,2035.0999999046326,FALSE,2,746.4000000953674,2035.0999999046326,2781.5,43,0,-0.9482054918947285,1,0.9837497199768845
we986a69,correct,2200.400000095367,1373,NA,NA,1373,TRUE,1,1373,0,1373,45,1,1.2933498619481698,0,-0.9482054918947285
we986a69,correct,4435.600000023842,1638,235.10000002384186,506.3000000715256,1468.0999999046326,FALSE,4,2144.3000000715256,1703.1999999284744,3847.5,46,1,0.7224261857907767,1,0.5611653607789098
we986a69,correct,3282.399999976158,929.5,1931.6000000238419,NA,1931.6000000238419,FALSE,2,929.5,1931.6000000238419,2861.100000023842,49,0,-0.9482054918947285,1,1.5136379242129048
we986a69,correct,2934,2091.399999976158,NA,NA,2091.399999976158,TRUE,1,2091.399999976158,0,2091.399999976158,50,1,1.0087578810384872,1,1.0916529532963561
we986a69,correct,2824.899999976158,1133.1999999284744,1320.4000000953674,NA,1320.4000000953674,FALSE,2,1133.1999999284744,1320.4000000953674,2453.600000023842,51,0.5,-0.23713452694238846,1,1.249695715996742
we986a69,correct,2436.7000000476837,664.2000000476837,1588.1000000238419,NA,1588.1000000238419,FALSE,2,664.2000000476837,1588.1000000238419,2252.3000000715256,53,0,-0.9482054918947285,1,0.6195173849258329
we986a69,correct,4328,791.3999999761581,543.5,1319.5,1105.8000000715256,TRUE,5,3216.7000000476837,830,4046.7000000476837,55,1,1.1789795862176193,0,-0.9482054918947285
we986a69,correct,1763.100000023842,1564.7999999523163,NA,NA,1564.7999999523163,TRUE,1,1564.7999999523163,0,1564.7999999523163,56,1,1.1673368899112748,1,0.6556761713018741
we986a69,correct,2739.7000000476837,940.7000000476837,1484.2000000476837,NA,1484.2000000476837,FALSE,2,940.7000000476837,1484.2000000476837,2424.9000000953674,57,0,-0.9482054918947285,1,0.7359175778120071
w4cb2435,correct,5516.399999856949,1150.3999998569489,1245.6000001430511,990.2000000476837,914,TRUE,5,3054.5999999046326,1880,4934.599999904633,58,1,1.1888517627446447,1,0.8453617075628441
w4cb2435,correct,5167.600000143051,1247.6000001430511,1122.6999998092651,1901.6000001430511,1901.6000001430511,TRUE,3,3149.2000002861023,1122.6999998092651,4271.900000095367,59,1,0.803841575678398,1,0.5154481862480262
w4cb2435,correct,4623.5,763.2000000476837,1283.3999998569489,520.7000000476837,1033.5,FALSE,4,1283.9000000953674,2316.899999856949,3600.7999999523163,60,0,-0.9607810995499676,1,1.0240036043364298
w4cb2435,correct,4630.799999952316,1228.5,1282.3999998569489,175.20000004768372,1144.7999999523163,FALSE,4,1403.7000000476837,2427.199999809265,3830.899999856949,62,0,-0.9607810995499676,1,1.231492952345937
w4cb2435,correct,3297.5,944.7999999523163,879.5,469.09999990463257,296.40000009536743,FALSE,4,1413.8999998569489,1175.9000000953674,2589.7999999523163,63,0,-0.9607810995499676,1,1.3691336683493311
w4cb2435,correct,4135.199999809265,858.1999998092651,873.3000001907349,1548.2999999523163,1548.2999999523163,TRUE,3,2406.4999997615814,873.3000001907349,3279.7999999523163,64,1,1.185692152709108,0,-0.9607810995499676
w4cb2435,correct,3143.7999999523163,845.3999998569489,839.9000000953674,528.9000000953674,528.9000000953674,TRUE,3,1374.2999999523163,839.9000000953674,2214.2000000476837,66,1,1.383182882967207,0,-0.9607810995499676
w4cb2435,correct,3047,767.6999998092651,1538.9000000953674,NA,1538.9000000953674,FALSE,2,767.6999998092651,1538.9000000953674,2306.5999999046326,67,0,-0.9607810995499676,1,0.73103547295529
w4cb2435,correct,3363.599999904633,718.7999999523163,1993.7999999523163,NA,1993.7999999523163,FALSE,2,718.7999999523163,1993.7999999523163,2712.5999999046326,69,0,-0.9607810995499676,1,1.0548535379233734
w4cb2435,correct,3089,770,1902.5,NA,1902.5,FALSE,2,770,1902.5,2672.5,70,0,-0.9607810995499676,1,0.670180042433435
w4cb2435,correct,2977.199999809265,762.5,1545.2999999523163,NA,1545.2999999523163,FALSE,2,762.5,1545.2999999523163,2307.7999999523163,71,0,-0.9607810995499676,1,1.2141546816354298
w4cb2435,correct,5266.200000047684,681.2999999523163,2069.9000000953674,621.5999999046326,1258.4000000953674,FALSE,4,1302.8999998569489,3328.300000190735,4631.200000047684,72,1,1.0201295060683482,1,1.0703823501514913
w4cb2435,correct,3425.199999809265,1032.7999999523163,704.2000000476837,962.5,962.5,TRUE,3,1995.2999999523163,704.2000000476837,2699.5,74,1,0.9069261176446648,1,0.8966137190924697
w4cb2435,correct,5077.5,672.9000000953674,3635.2000000476837,NA,3635.2000000476837,FALSE,2,672.9000000953674,3635.2000000476837,4308.100000143051,75,1,1.0783059083068909,1,1.0905212326280431
wd95d41e,correct,3231.0999999940395,875.2999999821186,1594.9000000059605,NA,1594.9000000059605,FALSE,2,875.2999999821186,1594.9000000059605,2470.199999988079,77,1,-0.2064524760838212,1,1.0970281617747712
wd95d41e,correct,2781.0999999940395,734.8000000119209,1500.5999999940395,NA,1500.5999999940395,FALSE,2,734.8000000119209,1500.5999999940395,2235.4000000059605,79,0,-1.2531743252547531,1,1.2215328520469382
wd95d41e,correct,3851.5,1305.0999999940395,1815.7999999821186,NA,1815.7999999821186,FALSE,2,1305.0999999940395,1815.7999999821186,3120.899999976158,80,1,0.669192212675379,1,1.053138635586361
wd95d41e,correct,2610.7999999821186,744.6999999880791,650.3000000119209,874.6999999880791,874.6999999880791,TRUE,3,1619.3999999761581,650.3000000119209,2269.699999988079,81,1,1.2370442119170053,1,0.7555048338957474
wd95d41e,correct,9258.80000001192,845,1640.300000011921,4092.300000011921,2056.199999988079,FALSE,4,4937.300000011921,3696.5,8633.800000011921,82,1,1.0678185972498384,1,0.20376800220435567
wd95d41e,correct,4685.9000000059605,1715,2330.7000000178814,NA,2330.7000000178814,FALSE,2,1715,2330.7000000178814,4045.7000000178814,83,1,0.6485992102944931,1,0.4241530902613698
wd95d41e,correct,3560.2999999821186,774.0999999940395,1715.699999988079,NA,1715.699999988079,FALSE,2,774.0999999940395,1715.699999988079,2489.7999999821186,84,1,1.1187071947860239,1,0.9478509078990957
wd95d41e,correct,4040.800000011921,1929.5999999940395,1596.300000011921,NA,1596.300000011921,FALSE,2,1929.5999999940395,1596.300000011921,3525.9000000059605,85,0.5,-0.17496001547460274,1,1.0367915074249618
wd95d41e,correct,9563.09999999404,4967.399999976158,4165.5,NA,4165.5,FALSE,2,4967.399999976158,4165.5,9132.899999976158,88,0,-1.2531743252547531,1,0.2420979039328857
wd95d41e,correct,3299.5,582.6999999880791,1731.5999999940395,NA,1731.5999999940395,FALSE,2,582.6999999880791,1731.5999999940395,2314.2999999821186,89,0,-1.2531743252547531,1,-0.08390456013776396
wd95d41e,correct,2290.2000000178814,669.7000000178814,1284.7999999821186,NA,1284.7999999821186,FALSE,2,669.7000000178814,1284.7999999821186,1954.5,90,0,-1.2531743252547531,1,1.0075528201810078
wd95d41e,correct,3745.7000000178814,894.2000000178814,500.09999999403954,1616.9000000059605,1616.9000000059605,TRUE,3,2511.100000023842,500.09999999403954,3011.2000000178814,91,1,0.7956148856594877,1,0.5502712634841767
wd95d41e,correct,3054.7000000178814,1224.9000000059605,620.3000000119209,814.8999999761581,814.8999999761581,TRUE,3,2039.7999999821186,620.3000000119209,2660.0999999940395,92,1,0.7943350141227501,0,-1.2531743252547531
wd95d41e,correct,3185.4000000059605,654.7000000178814,616.5999999940395,1334.5999999940395,1334.5999999940395,TRUE,3,1989.300000011921,616.5999999940395,2605.9000000059605,93,0.5,-0.19745832444795033,0,-1.2531743252547531
wd95d41e,correct,4066.400000005961,1690.800000011921,2080.699999988079,NA,2080.699999988079,FALSE,2,1690.800000011921,2080.699999988079,3771.5,94,1,0.6513720167507137,1,0.6999186836527774
wd95d41e,correct,2515.4000000059605,745.5999999940395,1524.7000000178814,NA,1524.7000000178814,FALSE,2,745.5999999940395,1524.7000000178814,2270.300000011921,95,0,-1.2531743252547531,1,0.9253413479599711
w56b1eee,correct,5808.199999988079,4519.399999976158,NA,NA,4519.399999976158,TRUE,1,4519.399999976158,0,4519.399999976158,96,1,-0.03755169976622398,1,0.7789446816527714
w56b1eee,correct,2391.300000011921,1647.4000000357628,NA,NA,1647.4000000357628,TRUE,1,1647.4000000357628,0,1647.4000000357628,97,1,0.29123816963028293,1,0.16961512316835684
w56b1eee,correct,1727.800000011921,1391.5999999642372,NA,NA,1391.5999999642372,TRUE,1,1391.5999999642372,0,1391.5999999642372,98,1,0.27650138803835456,1,-0.36561821864490857
w56b1eee,correct,5831.800000011921,1583.6000000238419,2735.899999976158,NA,2735.899999976158,FALSE,2,1583.6000000238419,2735.899999976158,4319.5,99,1,0.4189213286553637,1,0.028753648503166314
w56b1eee,correct,3327.399999976158,807.5,2136,NA,2136,FALSE,2,807.5,2136,2943.5,100,1,0.4435996627117065,1,0.5992651164610369
w56b1eee,correct,3767.5,1263.4000000357628,1975.8999999761581,NA,1975.8999999761581,FALSE,2,1263.4000000357628,1975.8999999761581,3239.300000011921,102,1,0.31304263692559037,1,0.4302142350182911
w56b1eee,correct,2367.600000023842,1719.5,NA,NA,1719.5,TRUE,1,1719.5,0,1719.5,103,1,0.5712968215551862,1,0.5267884909983868
w56b1eee,correct,2007.399999976158,1519.3999999761581,NA,NA,1519.3999999761581,TRUE,1,1519.3999999761581,0,1519.3999999761581,104,1,0.5506910574028248,1,0.19737236073063508
w56b1eee,correct,1871.899999976158,1367.5999999642372,NA,NA,1367.5999999642372,TRUE,1,1367.5999999642372,0,1367.5999999642372,105,1,0.5138594738628439,1,0.20890648348524968
w56b1eee,correct,3495.800000011921,1423.800000011921,1488,NA,1488,FALSE,2,1423.800000011921,1488,2911.800000011921,106,1,-0.591968410910415,1,0.5412979185910589
w56b1eee,correct,3815.300000011921,911.3000000119209,775.8999999761581,1960.800000011921,1960.800000011921,TRUE,3,2872.100000023842,775.8999999761581,3648,107,1,0.2158341866810621,0,-4.41028483998479
w56b1eee,correct,1782.300000011921,1430.300000011921,NA,NA,1430.300000011921,TRUE,1,1430.300000011921,0,1430.300000011921,108,1,-0.35549296478808284,1,0.5881643259216526
w56b1eee,correct,2095,1463,NA,NA,1463,TRUE,1,1463,0,1463,109,1,0.0535968747124852,1,0.3150349749045469
w56b1eee,correct,1752.399999976158,1287.5999999642372,NA,NA,1287.5999999642372,TRUE,1,1287.5999999642372,0,1287.5999999642372,110,1,0.40528572297944915,1,0.3975843023506028
w56b1eee,correct,1695.5,1319.5,NA,NA,1319.5,TRUE,1,1319.5,0,1319.5,111,1,0.5774458398702433,1,-1.0686626749143855
w56b1eee,correct,3167.7999999523163,1479.7999999523163,1159.9000000357628,NA,1159.9000000357628,FALSE,2,1479.7999999523163,1159.9000000357628,2639.699999988079,112,0.5,-2.8516007856401044,1,0.34940885185943665
w56b1eee,correct,1999.7999999523165,1447.8999999761581,NA,NA,1447.8999999761581,TRUE,1,1447.8999999761581,0,1447.8999999761581,113,1,0.29476329293557263,1,-0.08456916223944813
w56b1eee,correct,1647.699999988079,1119.699999988079,NA,NA,1119.699999988079,TRUE,1,1119.699999988079,0,1119.699999988079,114,1,0.5858250977335105,1,-0.0656366275201701
w7569874,correct,3555,1165,1993,NA,1993,FALSE,2,1165,1993,3158,115,1,0.21206678092674708,1,0.5312105836584872
w7569874,correct,2733,644,1758,NA,1758,TRUE,2,644,1758,2402,116,1,0.2371420314123239,1,0.6107794812850518
w7569874,correct,1484,701,483,NA,483,TRUE,2,701,483,1184,117,1,0.6030578586680614,1,0.01719992680660262
w7569874,correct,1800,1423,NA,NA,1423,TRUE,1,1423,0,1423,118,1,0.5438931064951169,1,0.41324639276455866
w7569874,correct,1413,1120,NA,NA,1120,TRUE,1,1120,0,1120,119,1,0.2948499349260164,1,0.46532279836960944
w7569874,correct,2442,615,1340,NA,1340,FALSE,2,615,1340,1955,120,0,-2.762120752708431,1,-0.4359282998587931
w7569874,correct,1500,1173,NA,NA,1173,TRUE,1,1173,0,1173,121,1,0.5135895790617856,1,0.44218200075056546
w7569874,correct,1605,1304,NA,NA,1304,TRUE,1,1304,0,1304,122,1,0.4684623774684773,1,0.429009801047734
w7569874,correct,1371,1096,NA,NA,1096,TRUE,1,1096,0,1096,123,1,0.5418329815456321,1,0.5993232441828314
w7569874,correct,2225,698,1017,NA,1017,FALSE,2,698,1017,1715,124,0,-2.762120752708431,1,-0.0033640420314606646
w7569874,correct,1375,1052,NA,NA,1052,TRUE,1,1052,0,1052,125,1,-0.1054713285542376,1,0.5818385324845119
w7569874,correct,1436,1192,NA,NA,1192,TRUE,1,1192,0,1192,126,1,-0.04425592001782125,1,0.2096064067839763
w7569874,correct,1119,837,NA,NA,837,TRUE,1,837,0,837,127,1,0.4085711174124469,1,0.20418081306255656
w7569874,correct,1219,956,NA,NA,956,TRUE,1,956,0,956,128,1,0.4146746572866057,1,0.5227695691481775
w7569874,correct,1305,1043,NA,NA,1043,TRUE,1,1043,0,1043,129,1,0.40356835348825604,1,0.2621194076191295
w7569874,correct,1420,861,NA,NA,861,TRUE,1,861,0,861,130,1,0.47001348322721814,1,0.5666612662399184
w7569874,correct,2596,1497,875,NA,875,FALSE,2,1497,875,2372,131,0,-2.762120752708431,1,0.497926411810214
w7569874,correct,1258,1002,NA,NA,1002,TRUE,1,1002,0,1002,132,1,0.3716136794571004,1,0.14818339480980658
w7569874,correct,2370,683,1260,NA,1260,FALSE,2,683,1260,1943,133,0,-2.762120752708431,1,-1.4312873522194425
w9a75935,correct,4205.5,1109.1999999284744,944.7000000476837,1744.2999999523163,1744.2999999523163,TRUE,3,2853.4999998807907,944.7000000476837,3798.1999999284744,134,1,0.8936623147725579,1,0.6883770466879945
w9a75935,correct,2749.899999976158,550.5999999046326,535.7000000476837,1232.2000000476837,1232.2000000476837,TRUE,3,1782.7999999523163,535.7000000476837,2318.5,135,1,0.8419447259467405,1,0.8591324812906391
w9a75935,correct,3174.1999999284744,430.1999999284744,2376.399999976158,NA,2376.399999976158,FALSE,2,430.1999999284744,2376.399999976158,2806.5999999046326,136,1,-0.2750969561836464,1,0.4424839385463904
w9a75935,correct,4813.399999976158,493.89999997615814,3056.2000000476837,NA,3056.2000000476837,FALSE,2,493.89999997615814,3056.2000000476837,3550.100000023842,137,1,-0.6848878170614215,1,0.5970700412216188
w9a75935,correct,3749.200000047684,541.8999999761581,1055.7000000476837,1639.3999999761581,1639.3999999761581,TRUE,3,2181.2999999523163,1055.7000000476837,3237,138,1,0.25253188857197434,1,0.8075013241284646
w9a75935,correct,2453.600000023842,533.7999999523163,1536.2000000476837,NA,1536.2000000476837,FALSE,2,533.7999999523163,1536.2000000476837,2070,139,1,0.27923102254279925,1,0.7463378613793896
w9a75935,correct,1999.100000023842,505.39999997615814,390.7000000476837,816.1000000238419,816.1000000238419,TRUE,3,1321.5,390.7000000476837,1712.2000000476837,140,1,0.5743681721202767,0.5,-0.8981249493097742
w9a75935,correct,2519.399999976158,416,751.7999999523163,712.8000000715256,712.8000000715256,TRUE,3,1128.8000000715256,751.7999999523163,1880.6000000238419,141,1,0.7864560656133117,1,-0.8418742932288314
w9a75935,correct,2614,598.3999999761581,1543.4000000953674,NA,1543.4000000953674,FALSE,2,598.3999999761581,1543.4000000953674,2141.8000000715256,143,1,0.5356486812834944,1,0.8968540844289733
w9a75935,correct,2959.8000000715256,488.7000000476837,791.7999999523163,351.60000002384186,879.8999999761581,FALSE,4,840.3000000715256,1671.6999999284744,2512,144,1,0.18376362967969864,1,0.6419970342848992
w9a75935,correct,1999.5,423.7999999523163,1224.8999999761581,NA,1224.8999999761581,FALSE,2,423.7999999523163,1224.8999999761581,1648.6999999284744,145,1,-0.2866563819872394,1,0.7453063652257339
w9a75935,correct,2152,472.2999999523163,1271.8000000715256,NA,1271.8000000715256,FALSE,2,472.2999999523163,1271.8000000715256,1744.1000000238419,146,1,0.5522914783622955,1,0.922874038499595
w9a75935,correct,2648.7999999523163,440.89999997615814,1415.6999999284744,NA,1415.6999999284744,FALSE,2,440.89999997615814,1415.6999999284744,1856.5999999046326,147,0,-1.94284582955802,0.5,-0.8964467040712163
w9a75935,correct,2398.3000000715256,446.7000000476837,528.1000000238419,927.7999999523163,927.7999999523163,TRUE,3,1374.5,528.1000000238419,1902.6000000238419,148,1,0.6648733393208023,0,-1.94284582955802
w9a75935,correct,3887.399999976158,399.89999997615814,1535.8999999761581,664.1000000238419,896.1000000238419,FALSE,4,1064,2432,3496,149,0,-1.94284582955802,1,0.024490949260589073
w9a75935,correct,2709.100000023842,501.2999999523163,824.2000000476837,935.3999999761581,935.3999999761581,TRUE,3,1436.6999999284744,824.2000000476837,2260.899999976158,150,1,0.6220508406669846,1,0.43797857307919863
w9a75935,correct,1902.5,414.89999997615814,967.7000000476837,NA,967.7000000476837,FALSE,2,414.89999997615814,967.7000000476837,1382.6000000238419,151,0,-1.94284582955802,1,0.9192508871441876
w9a75935,correct,1999.8000000715256,432,576.3999999761581,600.2000000476837,600.2000000476837,TRUE,3,1032.2000000476837,576.3999999761581,1608.6000000238419,152,1,0.6600737187014831,0.5,-1.2332111822261307
w7c192d0,correct,2365.29999999702,1615.2000000029802,NA,NA,1615.2000000029802,TRUE,1,1615.2000000029802,0,1615.2000000029802,153,1,0.7997655304460596,1,-0.18791419519143596
w7c192d0,correct,2541.29999999702,2063.2999999970198,NA,NA,2063.2999999970198,TRUE,1,2063.2999999970198,0,2063.2999999970198,154,1,-3.077472710950599,1,0.8948634462264136
w7c192d0,correct,1963.5999999940395,1652.8999999910593,NA,NA,1652.8999999910593,TRUE,1,1652.8999999910593,0,1652.8999999910593,155,1,1.1236608726894526,1,-1.2159953745319727
w7c192d0,correct,1676.2999999970198,1496.5,NA,NA,1496.5,TRUE,1,1496.5,0,1496.5,156,1,0.5200554006717277,1,0.23171337763179847
w7c192d0,correct,1831.29999999702,1580.1000000089407,NA,NA,1580.1000000089407,TRUE,1,1580.1000000089407,0,1580.1000000089407,157,1,0.03812640279161917,1,-1.2980649365676395
w7c192d0,correct,1806,1445.8999999910593,NA,NA,1445.8999999910593,TRUE,1,1445.8999999910593,0,1445.8999999910593,158,1,0.22745819278964124,1,-0.08724779968576302
w7c192d0,correct,1835.29999999702,1555.2000000029802,NA,NA,1555.2000000029802,TRUE,1,1555.2000000029802,0,1555.2000000029802,159,1,-1.281066888596616,1,0.0579855799643048
w7c192d0,correct,2592.4000000059605,2337.6000000089407,NA,NA,2337.6000000089407,TRUE,1,2337.6000000089407,0,2337.6000000089407,160,1,-0.4368694062024729,1,0.34686283977847276
w7c192d0,correct,1618.5,1217.300000011921,NA,NA,1217.300000011921,TRUE,1,1217.300000011921,0,1217.300000011921,161,1,0.4761819375684573,1,0.5793519453363567
w7c192d0,correct,1462.199999988079,1255,NA,NA,1255,TRUE,1,1255,0,1255,162,1,0.4904174243805341,1,-0.20803696786355994
w7c192d0,correct,1406.2999999970198,1213,NA,NA,1213,TRUE,1,1213,0,1213,163,1,0.7965366299082214,1,-1.2604441029201194
w7c192d0,correct,1601.2999999970198,1168.4000000059605,NA,NA,1168.4000000059605,TRUE,1,1168.4000000059605,0,1168.4000000059605,164,1,0.5338287083449659,1,0.78543532664064
w7c192d0,correct,1735.5,1522.2000000029802,NA,NA,1522.2000000029802,TRUE,1,1522.2000000029802,0,1522.2000000029802,165,1,-0.6615739724464907,1,0.6558217026748248
w7c192d0,correct,2285.29999999702,2043,NA,NA,2043,TRUE,1,2043,0,2043,166,1,0.04729574019744575,1,-3.2416749431998038
w7c192d0,correct,1722.300000011921,1423.1000000089407,NA,NA,1423.1000000089407,TRUE,1,1423.1000000089407,0,1423.1000000089407,167,1,-1.268006775613258,1,0.08066296122700305
w7c192d0,correct,1236.199999988079,1037.199999988079,NA,NA,1037.199999988079,TRUE,1,1037.199999988079,0,1037.199999988079,168,1,0.5898058204010982,1,0.8899457878781533
w7c192d0,correct,1561.9000000059605,1357.2999999970198,NA,NA,1357.2999999970198,TRUE,1,1357.2999999970198,0,1357.2999999970198,169,1,0.37319893602848014,1,0.8748544251832856
w7c192d0,correct,1903.4000000059605,1562.2999999970198,NA,NA,1562.2999999970198,TRUE,1,1562.2999999970198,0,1562.2999999970198,170,1,0.3852356797309282,1,-0.04463623760042821
w7c192d0,correct,1219.7000000029802,1033,NA,NA,1033,TRUE,1,1033,0,1033,171,1,1.1221194340195777,1,0.24577755101430793
wbfa9620,correct,5523.5,989.2000000029802,3570.2999999970198,NA,3570.2999999970198,FALSE,2,989.2000000029802,3570.2999999970198,4559.5,172,1,-0.14086371846488793,1,0.8913301591653554
wbfa9620,correct,3317.5,2254.5,NA,NA,2254.5,TRUE,1,2254.5,0,2254.5,173,1,0.47443861180351027,1,0.7850376312280064
wbfa9620,correct,4515.29999999702,675.1999999880791,598.7000000029802,490,1852.7000000029802,FALSE,4,1165.199999988079,2451.4000000059605,3616.5999999940395,174,1,0.730533610531408,1,-0.31503696714388546
wbfa9620,correct,3275.29999999702,760.7999999970198,1790.5,NA,1790.5,FALSE,2,760.7999999970198,1790.5,2551.2999999970198,175,0,-2.0503788604863824,1,0.5463136852477846
wbfa9620,correct,3442.1000000089407,674.6000000089407,1788.0999999940395,NA,1788.0999999940395,FALSE,2,674.6000000089407,1788.0999999940395,2462.7000000029802,176,0,-2.0503788604863824,1,0.40555594212110196
wbfa9620,correct,3979.70000000298,739.2999999970198,913.7000000029802,1416.2999999970198,1416.2999999970198,TRUE,3,2155.5999999940395,913.7000000029802,3069.2999999970198,177,1,0.0893488747174275,1,-0.1424757618369113
wbfa9620,correct,3387.9000000059605,981.7000000029802,1980.7000000029802,NA,1980.7000000029802,FALSE,2,981.7000000029802,1980.7000000029802,2962.4000000059605,178,1,0.3129806345235829,1,0.7013693888292335
wbfa9620,correct,3401,684.5999999940395,940.7999999970198,1218.5,1218.5,TRUE,3,1903.0999999940395,940.7999999970198,2843.8999999910593,179,1,0.28708704564966125,1,0.5775159255259535
wbfa9620,correct,2742,537.7999999970198,1777.7999999970198,NA,1777.7999999970198,FALSE,2,537.7999999970198,1777.7999999970198,2315.5999999940395,180,0,-2.0503788604863824,1,0.2876722621860866
wbfa9620,correct,3029.79999999702,786.2000000029802,1746.5,NA,1746.5,FALSE,2,786.2000000029802,1746.5,2532.7000000029802,181,1,0.30955328774519436,1,0.7993249056691842
wbfa9620,correct,3559.800000011921,666.1000000089407,577.5,1956.3999999910593,1956.3999999910593,TRUE,3,2622.5,577.5,3200,182,1,0.11962711135009137,1,0.6544149962256102
wbfa9620,correct,2532.800000011921,564.4000000059605,556.7000000029802,1100.0999999940395,1100.0999999940395,TRUE,3,1664.5,556.7000000029802,2221.2000000029802,183,1,0.913303852883792,0,-2.0503788604863824
wbfa9620,correct,3217.20000000298,650.4000000059605,1927.9000000059605,NA,1927.9000000059605,FALSE,2,650.4000000059605,1927.9000000059605,2578.300000011921,184,1,0.17645824334673457,1,0.7748228859363292
wbfa9620,correct,3220.4000000059605,639.2000000029802,727.0999999940395,1448,1448,TRUE,3,2087.2000000029802,727.0999999940395,2814.2999999970198,185,1,0.29695492918898064,1,0.3494748287373041
wbfa9620,correct,2278.199999988079,656.3999999910593,374.6000000089407,911.6999999880791,911.6999999880791,TRUE,3,1568.0999999791384,374.6000000089407,1942.699999988079,186,1,0.8639652916990598,1,0.25392184618071967
wbfa9620,correct,3037.4000000059605,613.9000000059605,1973.0999999940395,NA,1973.0999999940395,FALSE,2,613.9000000059605,1973.0999999940395,2587,188,0,-2.0503788604863824,1,0.14660152648381758
wbfa9620,correct,3047.1000000089407,485.20000000298023,496.29999999701977,1239.2000000029802,1239.2000000029802,TRUE,3,1724.4000000059605,496.29999999701977,2220.7000000029802,189,1,0.23648605351011373,1,0.8275201578953728
wbfa9620,correct,3268.29999999702,779.5,1679.5,NA,1679.5,FALSE,2,779.5,1679.5,2459,190,1,0.7468759978846199,1,0.2539092847505456
w0ae1022,correct,4780.700000000186,661,3472.800000000745,NA,3472.800000000745,FALSE,2,661,3472.800000000745,4133.800000000745,191,0,-2.033760789951442,1,0.49065546813404515
w0ae1022,correct,2612.800000000745,2119.7000000001863,NA,NA,2119.7000000001863,TRUE,1,2119.7000000001863,0,2119.7000000001863,192,1,0.033853661595022434,1,0.6430810336014339
w0ae1022,correct,2994.5,2333.600000000559,NA,NA,2333.600000000559,TRUE,1,2333.600000000559,0,2333.600000000559,194,1,-0.023865671375831343,1,0.7489024606769216
w0ae1022,correct,1855.800000000745,1436.800000000745,NA,NA,1436.800000000745,TRUE,1,1436.800000000745,0,1436.800000000745,195,1,0.707706028990568,1,0.8210012126789638
w0ae1022,correct,1772.5,1249.1000000005588,NA,NA,1249.1000000005588,TRUE,1,1249.1000000005588,0,1249.1000000005588,196,1,0.8065405168075185,1,0.5032962867665873
w0ae1022,correct,1718.7000000001865,1271.7000000001863,NA,NA,1271.7000000001863,TRUE,1,1271.7000000001863,0,1271.7000000001863,197,1,0.6042186740621244,1,0.5382035061524668
w0ae1022,correct,2702.600000000559,646.5,1801.2999999998137,NA,1801.2999999998137,FALSE,2,646.5,1801.2999999998137,2447.7999999998137,198,0,-2.033760789951442,1,0.5730286349183829
w0ae1022,correct,2433.5999999996275,1407.5999999996275,NA,NA,1407.5999999996275,TRUE,1,1407.5999999996275,0,1407.5999999996275,199,1,0.5279777684951281,1,-0.08459597290129081
w0ae1022,correct,1708.6000000005588,1334.800000000745,NA,NA,1334.800000000745,TRUE,1,1334.800000000745,0,1334.800000000745,200,1,0.49522677582183433,0.5,-0.7627007820823567
w0ae1022,correct,3692.900000000373,1612.9000000003725,597.9000000003725,961.8999999994412,961.8999999994412,TRUE,3,2574.7999999998137,597.9000000003725,3172.7000000001863,201,1,-0.2018898585162378,0,-2.033760789951442
w0ae1022,correct,1800.5999999996277,1527.5,NA,NA,1527.5,TRUE,1,1527.5,0,1527.5,202,1,0.03389687462230619,1,0.23551440140536153
w0ae1022,correct,2275.7000000001863,1417.7000000001863,NA,NA,1417.7000000001863,TRUE,1,1417.7000000001863,0,1417.7000000001863,203,1,0.1427059164444051,1,0.465175687128656
w0ae1022,correct,2607.7000000001863,861.8000000007451,1427,NA,1427,FALSE,2,861.8000000007451,1427,2288.800000000745,204,1,0.44132588426359554,1,0.7152141763654472
w0ae1022,correct,1608.5999999996277,1216.5999999996275,NA,NA,1216.5999999996275,TRUE,1,1216.5999999996275,0,1216.5999999996275,205,1,0.6159175307753951,1,0.8068526143135699
w0ae1022,correct,1631.8999999994412,1303.5999999996275,NA,NA,1303.5999999996275,TRUE,1,1303.5999999996275,0,1303.5999999996275,206,1,0.5852389282372649,0,-2.033760789951442
w0ae1022,correct,1750.7000000001865,1239.7000000001863,NA,NA,1239.7000000001863,TRUE,1,1239.7000000001863,0,1239.7000000001863,207,1,0.37710166716869187,0,-2.033760789951442
w0ae1022,correct,1577.7999999998135,1212.9000000003725,NA,NA,1212.9000000003725,TRUE,1,1212.9000000003725,0,1212.9000000003725,208,1,0.8323175166941226,1,0.5402736280994667
w0ae1022,correct,2935.4000000003725,1112.4000000003725,314,1276.8999999994412,1276.8999999994412,TRUE,3,2389.2999999998137,314,2703.2999999998137,209,1,0.32900088837908636,1,0.6341597332636476
wcd0b554,correct,3230.7999999523163,486.5,1375,NA,1375,FALSE,2,486.5,1375,1861.5,213,0,-1.2330155728935872,1,0.9137849474059466
wcd0b554,correct,2090.7000000476837,496.10000002384186,368.7000000476837,698,698,TRUE,3,1194.1000000238419,368.7000000476837,1562.8000000715256,214,1,1.0644528391650354,0,-1.2330155728935872
wcd0b554,correct,2099.400000095367,1607.1000000238419,NA,NA,1607.1000000238419,TRUE,1,1607.1000000238419,0,1607.1000000238419,215,1,1.0447657980592813,0,-1.2330155728935872
wcd0b554,correct,2707.3000000715256,604.6000000238419,1761.2000000476837,NA,1761.2000000476837,FALSE,2,604.6000000238419,1761.2000000476837,2365.8000000715256,216,1,0.196545432461477,1,0.6396815654648695
wcd0b554,correct,1818.899999976158,1358.3999999761581,NA,NA,1358.3999999761581,TRUE,1,1358.3999999761581,0,1358.3999999761581,217,1,0.8212470110659115,1,0.8087599944595729
wcd0b554,correct,1527.100000023842,1086.6000000238419,NA,NA,1086.6000000238419,TRUE,1,1086.6000000238419,0,1086.6000000238419,218,1,0.9971742679960468,1,0.6004071579155522
wcd0b554,correct,1456.100000023842,399.5,744.3999999761581,NA,744.3999999761581,FALSE,2,399.5,744.3999999761581,1143.8999999761581,219,0,-1.2330155728935872,1,0.9765236177453379
wcd0b554,correct,1446.5,983.3999999761581,NA,NA,983.3999999761581,TRUE,1,983.3999999761581,0,983.3999999761581,220,1,1.136028317953327,1,0.6706961807961928
wcd0b554,correct,1400.7000000476835,935.7999999523163,NA,NA,935.7999999523163,TRUE,1,935.7999999523163,0,935.7999999523163,223,1,1.0062279465805526,0,-1.2330155728935872
wcd0b554,correct,1380.899999976158,821.7999999523163,NA,NA,821.7999999523163,TRUE,1,821.7999999523163,0,821.7999999523163,225,1,0.9812187553915204,1,0.9470727146872566
wcd0b554,correct,1729.100000023842,373.39999997615814,379.60000002384186,412.5,412.5,TRUE,3,785.8999999761581,379.60000002384186,1165.5,226,1,0.6968357598604563,0,-1.2330155728935872
wcd0b554,correct,1731.7000000476835,474.5,329.7999999523163,336.3000000715256,336.3000000715256,TRUE,3,810.8000000715256,329.7999999523163,1140.6000000238419,227,1,0.8818773047376919,1,0.8523957050060404
wcd0b554,correct,1969.2000000476835,534.6000000238419,909.8999999761581,NA,909.8999999761581,FALSE,2,534.6000000238419,909.8999999761581,1444.5,228,0,-1.2330155728935872,1,0.5959404542991613
w9f905bf,correct,3215.9999999998836,1463.9999999998836,1217,NA,1217,FALSE,2,1463.9999999998836,1217,2680.9999999998836,229,1,0.9789756578126447,1,0.8536729515782364
w9f905bf,correct,2822,796.0000000001164,1505.9999999998836,NA,1505.9999999998836,FALSE,2,796.0000000001164,1505.9999999998836,2302,230,0,-1.1490652909921875,1,1.094563418695507
w9f905bf,correct,2706,860,1275,NA,1275,FALSE,2,860,1275,2135,231,0,-1.1490652909921875,1,0.8143926591491183
w9f905bf,correct,3637.000000000117,637.0000000001164,726.9999999998836,1415,1415,TRUE,3,2052.0000000001164,726.9999999998836,2779,232,1,1.1001777427533264,1,0.7938791509486777
w9f905bf,correct,2654.9999999998836,484.9999999998836,1464,NA,1464,FALSE,2,484.9999999998836,1464,1948.9999999998836,233,0,-1.1490652909921875,1,0.7346976246753505
w9f905bf,correct,3248,1272,1573.0000000001164,NA,1573.0000000001164,FALSE,2,1272,1573.0000000001164,2845.0000000001164,234,0.5,-0.06918215861383588,1,1.0518553224451397
w9f905bf,correct,2033,792,600,NA,600,TRUE,2,792,600,1392,236,1,1.0281721623738804,0,-1.1490652909921875
w9f905bf,correct,1745,1159,NA,NA,1159,TRUE,1,1159,0,1159,237,1,1.0801116237171353,1,0.6933094978649675
w9f905bf,correct,2889,863.0000000001164,952,301.9999999998836,301.9999999998836,TRUE,3,1165,952,2117,238,1,0.9613402775529095,0,-1.1490652909921875
w9f905bf,correct,2005,740,628,NA,628,TRUE,2,740,628,1368,240,1,0.9448573776165802,1,0.7827361033349447
w9f905bf,correct,1725,1105,NA,NA,1105,TRUE,1,1105,0,1105,241,1,0.9418866386220686,0,-1.1490652909921875
w9f905bf,correct,1959.9999999998836,294.9999999998836,1318,NA,1318,FALSE,2,294.9999999998836,1318,1612.9999999998836,242,0.5,-0.6259843938066659,1,0.9523663895608341
w9f905bf,correct,2262.0000000001164,590,1017,NA,1017,TRUE,2,590,1017,1607,243,1,0.5304736956872089,0,-1.1490652909921875
w9f905bf,correct,2357,805.0000000001164,601.9999999998836,546,546,TRUE,3,1351.0000000001164,601.9999999998836,1953,244,1,0.8038597767556824,0,-1.1490652909921875
w9f905bf,correct,2006,465,1208,NA,1208,FALSE,2,465,1208,1673,245,0,-1.1490652909921875,1,0.86109272471269
w9f905bf,correct,3059.0000000001164,504,1781.0000000001164,NA,1781.0000000001164,FALSE,2,504,1781.0000000001164,2285.0000000001164,246,0,-1.1490652909921875,1,0.21539412567432029
w9f905bf,correct,2019,723,959,NA,959,FALSE,2,723,959,1682,247,0,-1.1490652909921875,1,1.1108172527665001
wfe7f90e,correct,2407,1870,NA,NA,1870,TRUE,1,1870,0,1870,248,1,0.9680609614153359,0,-1.3058781927953875
wfe7f90e,correct,2724,1271,NA,NA,1271,TRUE,1,1271,0,1271,250,0.5,-0.09863321539889967,1,0.8764489082686633
wfe7f90e,correct,5218,4574,NA,NA,4574,TRUE,1,4574,0,4574,253,1,0.7138612285771998,0,-1.3058781927953875
wfe7f90e,correct,4822,4077,NA,NA,4077,TRUE,1,4077,0,4077,254,1,0.7946862014442079,1,0.9527819801365275
wfe7f90e,correct,1383,666,NA,NA,666,TRUE,1,666,0,666,256,1,1.2715592847160462,0,-1.3058781927953875
wfe7f90e,correct,13181,3848,622,7545,7545,TRUE,3,11393,622,12015,258,1,0.9229707991659313,0,-1.3058781927953875
wfe7f90e,correct,3687,2490,NA,NA,2490,TRUE,1,2490,0,2490,259,1,1.118113445300929,1,0.2808141061036741
wfe7f90e,correct,3441,1230,1695,NA,1695,FALSE,2,1230,1695,2925,260,0,-1.3058781927953875,1,0.8158397946116827
wfe7f90e,correct,4472,1343,2391,NA,2391,FALSE,2,1343,2391,3734,261,0,-1.3058781927953875,1,0.9417520005285998
wfe7f90e,correct,3868,1185,1937,NA,1937,FALSE,2,1185,1937,3122,262,0,-1.3058781927953875,1,0.8108209713931995
wfe7f90e,correct,1990,1389,NA,NA,1389,TRUE,1,1389,0,1389,264,1,-0.29289768266442195,0,-1.3058781927953875
wfe7f90e,correct,3128,617,595,761,537,FALSE,4,1378,1132,2510,265,0.5,-0.36273122594385737,1,0.3816506242524107
wfe7f90e,correct,4063,594,3014,NA,3014,FALSE,2,594,3014,3608,266,0,-1.3058781927953875,1,0.48504376549106776
w3faa654,correct,7302.699999999255,2410.5,NA,NA,2410.5,TRUE,1,2410.5,0,2410.5,270,1,1.0803641286861922,1,-0.9897074562284529
w3faa654,correct,5996.39999999851,5391.39999999851,NA,NA,5391.39999999851,TRUE,1,5391.39999999851,0,5391.39999999851,271,0.5,0.35248270332221826,0.5,-0.9686270322919182
w3faa654,correct,7316.900000002235,1962.800000000745,NA,NA,1962.800000000745,TRUE,1,1962.800000000745,0,1962.800000000745,273,0.5,-0.76859164215957,0,-1.5539956406372406
w3faa654,correct,5273.5,4508.199999999255,NA,NA,4508.199999999255,TRUE,1,4508.199999999255,0,4508.199999999255,275,0,-1.5539956406372406,1,1.0422519221921327
w3faa654,correct,3579.70000000298,2915.60000000149,NA,NA,2915.60000000149,TRUE,1,2915.60000000149,0,2915.60000000149,276,1,1.9516457602611166,0.5,-0.9368460673825629
w3faa654,correct,8011.300000000745,7429.400000002235,NA,NA,7429.400000002235,TRUE,1,7429.400000002235,0,7429.400000002235,277,1,-0.12689009104220733,1,0.3954309798447323
w3faa654,correct,3443.10000000149,2714.699999999255,NA,NA,2714.699999999255,TRUE,1,2714.699999999255,0,2714.699999999255,281,1,-0.33590576973607017,1,-0.51062150507784
w3faa654,correct,2623.900000002235,826,NA,NA,826,TRUE,1,826,0,826,283,0.5,-0.14240962243164274,1,-0.07634316343031412
w3faa654,correct,6757.699999999255,608,NA,NA,608,TRUE,1,608,0,608,284,1,-0.27980003042361484,1,2.3683761719751955
w3faa654,correct,3673.400000002235,535.6999999992549,NA,NA,535.6999999992549,TRUE,1,535.6999999992549,0,535.6999999992549,285,1,0.8486757590488101,1,-0.8086460924645438
wa201a0e,correct,10122.5,1880,1314.199999999255,804.4000000022352,4676.60000000149,TRUE,5,7361.000000003725,1953.4999999962747,9314.5,286,1,-0.4481909279475108,1,0.5958476273297496
wa201a0e,correct,4895.800000000745,1315.800000000745,2671.5,NA,2671.5,FALSE,2,1315.800000000745,2671.5,3987.300000000745,287,1,0.7868454576445316,1,0.05905403209672694
wa201a0e,correct,3615.5,1037.199999999255,2230.10000000149,NA,2230.10000000149,FALSE,2,1037.199999999255,2230.10000000149,3267.300000000745,288,1,0.5341792061238095,1,0.6071828208618474
wa201a0e,correct,3235.5,989.1999999992549,718.5999999977648,1010.8000000007451,1010.8000000007451,TRUE,3,2000,718.5999999977648,2718.599999997765,289,1,0.18937295889204733,1,0.571521812028136
wa201a0e,correct,3138.300000000745,1176.8999999985099,1602.5,NA,1602.5,FALSE,2,1176.8999999985099,1602.5,2779.39999999851,290,1,-0.24281769899512437,1,0.7924143436297968
wa201a0e,correct,2784.70000000298,868.7000000029802,1513.5,NA,1513.5,FALSE,2,868.7000000029802,1513.5,2382.2000000029802,291,1,0.6328544599318446,1,0.259261826819701
wa201a0e,correct,3230.39999999851,873.6000000014901,1976.5,NA,1976.5,FALSE,2,873.6000000014901,1976.5,2850.10000000149,292,1,0.10213458959091092,1,0.2580565235049907
wa201a0e,correct,3784.5,689.7999999970198,599.1000000014901,1382,1382,TRUE,3,2071.7999999970198,599.1000000014901,2670.89999999851,293,1,0.17761982134897264,1,0.004807071063987242
wa201a0e,correct,3060.39999999851,801.2999999970198,501.70000000298023,1203.5,1203.5,TRUE,3,2004.7999999970198,501.70000000298023,2506.5,294,1,0.3215122489174616,0,-3.8864302071964834
wa201a0e,correct,3084.800000000745,781.1000000014901,359.29999999701977,1080.300000000745,1080.300000000745,TRUE,3,1861.4000000022352,359.29999999701977,2220.699999999255,295,1,0.46297074796680565,1,-0.32724700644419114
wa201a0e,correct,2587.29999999702,577.5,530.2999999970198,1048.1000000014901,1048.1000000014901,TRUE,3,1625.6000000014901,530.2999999970198,2155.89999999851,296,1,0.6148922519909876,1,0.46164152087817883
wa201a0e,correct,2680.099999997765,602,391.5,1266.699999999255,1266.699999999255,TRUE,3,1868.699999999255,391.5,2260.199999999255,297,1,-0.3093290661847676,1,-0.13986570135214452
wa201a0e,correct,2653.300000000745,615.3000000007451,411.8999999985099,1071.199999999255,1071.199999999255,TRUE,3,1686.5,411.8999999985099,2098.39999999851,298,1,0.619260538491023,1,0.3694708577980095
wa201a0e,correct,2730.199999999255,725.6999999992549,427,1152.5,1152.5,TRUE,3,1878.199999999255,427,2305.199999999255,299,1,0.32064397229018093,0,-3.8864302071964834
wa201a0e,correct,3240.599999997765,573.6999999992549,333.30000000074506,1061.8999999985099,845.6999999992549,FALSE,4,1635.5999999977648,1179,2814.599999997765,300,1,0.07412182583131438,1,-1.174021941571458
wa201a0e,correct,2187.5,626.5,219.09999999776483,967.5,967.5,TRUE,3,1594,219.09999999776483,1813.0999999977648,301,1,0.560579151944648,1,0.13193477715405472
wa201a0e,correct,3076.199999999255,598.1999999992549,280.70000000298023,894.1999999992549,841.3999999985099,FALSE,4,1492.3999999985099,1122.1000000014901,2614.5,302,1,0.6527819568601788,1,0.5368161667395426
wa201a0e,correct,2213.900000002235,567.8000000007451,256.8999999985099,900.3000000007451,900.3000000007451,TRUE,3,1468.1000000014901,256.8999999985099,1725,303,1,-0.4895539020049361,1,0.4507057489184164
wa201a0e,correct,2760.89999999851,715.3999999985099,1748.199999999255,NA,1748.199999999255,FALSE,2,715.3999999985099,1748.199999999255,2463.599999997765,304,1,-0.4413030941755747,1,-0.5107148459452036
wb453b10,correct,9008.60000000149,2756.10000000149,2009.699999999255,3436.89999999851,3436.89999999851,TRUE,3,6193,2009.699999999255,8202.699999999255,305,1,0.9742108438840595,0,-1.7011723387008721
wb453b10,correct,7092.199999999255,3388.400000002235,2628.699999999255,NA,2628.699999999255,TRUE,2,3388.400000002235,2628.699999999255,6017.10000000149,308,1,0.5096456367406577,0,-1.7011723387008721
wb453b10,correct,9871.900000002235,5190.800000000745,3106.199999999255,NA,3106.199999999255,TRUE,2,5190.800000000745,3106.199999999255,8297,309,1,0.7201190784036678,0,-1.7011723387008721
wb453b10,correct,9951.699999999257,3277.60000000149,3742.099999997765,NA,3742.099999997765,TRUE,2,3277.60000000149,3742.099999997765,7019.699999999255,310,1,0.658156795678274,0.5,-0.7186185840514437
wb453b10,correct,5248.5,2129.099999997765,2388.900000002235,NA,2388.900000002235,TRUE,2,2129.099999997765,2388.900000002235,4518,311,1,8.944350916360355e-4,1,0.7211511778637019
wb453b10,correct,5688.39999999851,2473.89999999851,1865,NA,1865,TRUE,2,2473.89999999851,1865,4338.89999999851,312,1,0.815946207430866,1,0.6960699897155374
wb453b10,correct,10863.199999999257,2652.300000000745,3430.5,1150.5,2442.699999999255,FALSE,4,3802.800000000745,5873.199999999255,9676,313,0,-1.7011723387008721,1,0.7481538854298538
wb453b10,correct,4692.699999999255,2319.099999997765,1411.5,NA,1411.5,TRUE,2,2319.099999997765,1411.5,3730.599999997765,314,1,0.7444367181301907,0.5,-1.4375664967115924
wb453b10,correct,6278.29999999702,2542.2999999970198,3077.10000000149,NA,3077.10000000149,FALSE,2,2542.2999999970198,3077.10000000149,5619.39999999851,315,0,-1.7011723387008721,1,1.0048805640242726
wb453b10,correct,6453.199999999255,2833.300000000745,2260.300000000745,NA,2260.300000000745,TRUE,2,2833.300000000745,2260.300000000745,5093.60000000149,316,1,1.0761926859158182,1,0.26985249914251125
wb453b10,correct,6480.89999999851,2144.39999999851,2809.800000000745,NA,2809.800000000745,FALSE,2,2144.39999999851,2809.800000000745,4954.199999999255,317,0.5,-0.7126947684500903,1,0.41510225826192615
wb453b10,correct,5040.5,2681.199999999255,1537,NA,1537,TRUE,2,2681.199999999255,1537,4218.199999999255,318,1,-0.06515253302776787,1,0.8991627695016631
wb453b10,correct,8424,2017.199999999255,5418.400000002235,NA,5418.400000002235,FALSE,2,2017.199999999255,5418.400000002235,7435.60000000149,319,0,-1.7011723387008721,1,0.3680251403405743
wb453b10,correct,8330.800000000745,1924.7000000029802,2522,1017.5999999977648,1127.9000000022352,FALSE,4,2942.300000000745,3649.900000002235,6592.20000000298,320,0,-1.7011723387008721,1,-0.43394678682497395
wb453b10,correct,4707.10000000149,1956.300000000745,1896.1000000014901,NA,1896.1000000014901,TRUE,2,1956.300000000745,1896.1000000014901,3852.400000002235,321,1,0.6769419812678162,1,0.9090328579213012
wb453b10,correct,4877.699999999255,2420.699999999255,1777.4000000022352,NA,1777.4000000022352,TRUE,2,2420.699999999255,1777.4000000022352,4198.10000000149,323,1,0.9572671778066656,1,0.8047470862961374
w742eda0,correct,2655.10000000149,2168.5,NA,NA,2168.5,TRUE,1,2168.5,0,2168.5,324,1,1.1435257479462606,0,-1.2621198286496047
w742eda0,correct,2771.9000000059605,1721.3000000044703,NA,NA,1721.3000000044703,TRUE,1,1721.3000000044703,0,1721.3000000044703,325,1,0.7323397413615145,0,-1.2621198286496047
w742eda0,correct,3710.5,752.7000000029802,2527.89999999851,NA,2527.89999999851,FALSE,2,752.7000000029802,2527.89999999851,3280.60000000149,326,0,-1.2621198286496047,1,0.2334288379402106
w742eda0,correct,2870.10000000149,882,1517.2999999970198,NA,1517.2999999970198,FALSE,2,882,1517.2999999970198,2399.2999999970198,328,1,0.4488868562851195,1,0.5445308183761097
w742eda0,correct,2060.79999999702,1555.5,NA,NA,1555.5,TRUE,1,1555.5,0,1555.5,329,1,0.2968949075892644,1,0.7555462758445604
w742eda0,correct,2785.39999999851,2364.6999999955297,NA,NA,2364.6999999955297,TRUE,1,2364.6999999955297,0,2364.6999999955297,330,1,1.125568013301434,0,-1.2621198286496047
w742eda0,correct,1918.20000000298,1415.3999999985099,NA,NA,1415.3999999985099,TRUE,1,1415.3999999985099,0,1415.3999999985099,331,1,0.8924836912332311,1,0.6966690841724512
w742eda0,correct,2032.1999999955297,1341.3999999985099,NA,NA,1341.3999999985099,TRUE,1,1341.3999999985099,0,1341.3999999985099,332,1,1.149626680308569,1,0.9637743204467818
w742eda0,correct,1803.20000000298,1403.1000000014901,NA,NA,1403.1000000014901,TRUE,1,1403.1000000014901,0,1403.1000000014901,333,1,1.016129208132884,0,-1.2621198286496047
w742eda0,correct,3178.6999999955297,965.5,1887.1999999955297,NA,1887.1999999955297,FALSE,2,965.5,1887.1999999955297,2852.6999999955297,334,0,-1.2621198286496047,1,0.7779023839509123
w742eda0,correct,1504.8000000044703,1172.6000000014901,NA,NA,1172.6000000014901,TRUE,1,1172.6000000014901,0,1172.6000000014901,335,1,0.9598026391909611,1,0.9996859456622219
w742eda0,correct,1997,1735.3999999985099,NA,NA,1735.3999999985099,TRUE,1,1735.3999999985099,0,1735.3999999985099,337,1,1.1352747612804288,0,-1.2621198286496047
w742eda0,correct,2501.60000000149,948.3000000044703,1274.2999999970198,NA,1274.2999999970198,FALSE,2,948.3000000044703,1274.2999999970198,2222.60000000149,338,0,-1.2621198286496047,1,0.6073536601815313
w742eda0,correct,2738.79999999702,795.6999999955297,1623.4000000059605,NA,1623.4000000059605,FALSE,2,795.6999999955297,1623.4000000059605,2419.10000000149,339,1,0.3421711981548762,1,0.9393857207571565
w742eda0,correct,3635.10000000149,1679.3000000044703,503.8999999985099,417.79999999701977,701.3000000044703,FALSE,4,2097.10000000149,1205.2000000029802,3302.3000000044703,341,1,0.4056236847340244,1,0.25040975658141307
w55bbf4f,correct,8172.799999952316,884.7999999523163,838.2000000476837,2750.899999976158,2488.7999999523163,FALSE,4,3635.6999999284744,3327,6962.699999928474,343,1,0.262935900405985,1,0.18688449454556086
w55bbf4f,correct,3952.399999976158,513.8999999761581,2466.8000000715256,NA,2466.8000000715256,FALSE,2,513.8999999761581,2466.8000000715256,2980.7000000476837,344,1,0.3085999360232064,1,0.8127214558726978
w55bbf4f,correct,5639.199999928474,788.3999999761581,621.1000000238419,3752.0999999046326,3752.0999999046326,TRUE,3,4540.499999880791,621.1000000238419,5161.599999904633,345,1,-0.17864813989417033,0,-1.8591676016844265
w55bbf4f,correct,3955.3000000715256,634.8000000715256,600.0999999046326,538,1136.8000000715256,FALSE,4,1172.8000000715256,1736.8999999761581,2909.7000000476837,346,1,0.724536967086028,1,0.7237075545247851
w55bbf4f,correct,4719.799999952316,548.8999999761581,793.7000000476837,2610.1999999284744,2610.1999999284744,TRUE,3,3159.0999999046326,793.7000000476837,3952.7999999523163,347,1,0.8230217800807269,1,0.03833665021309626
w55bbf4f,correct,4106.800000071526,564.6000000238419,2980.2000000476837,NA,2980.2000000476837,FALSE,2,564.6000000238419,2980.2000000476837,3544.8000000715256,348,0.5,-1.6090755699785697,1,0.698522696415714
w55bbf4f,correct,3545.900000095367,504.5,1671.2000000476837,NA,1671.2000000476837,TRUE,2,504.5,1671.2000000476837,2175.7000000476837,349,1,0.7080180419692208,1,0.43419804945790386
w55bbf4f,correct,4152.100000023842,495.7999999523163,593.5,2259.5,2259.5,TRUE,3,2755.2999999523163,593.5,3348.7999999523163,350,1,0.5659744795592366,0,-1.8591676016844265
w55bbf4f,correct,2853.100000023842,440.60000002384186,1797.5999999046326,NA,1797.5999999046326,FALSE,2,440.60000002384186,1797.5999999046326,2238.1999999284744,351,1,-0.243756112811276,1,0.624387636827875
w55bbf4f,correct,2789.7000000476837,632.8999999761581,422.7000000476837,1219.8999999761581,1219.8999999761581,TRUE,3,1852.7999999523163,422.7000000476837,2275.5,352,1,0.41506510577845385,1,0.5740133540480796
w55bbf4f,correct,2561.400000095367,507.10000002384186,409.89999997615814,1044.5,1044.5,TRUE,3,1551.6000000238419,409.89999997615814,1961.5,353,1,0.6034849384103774,1,0.6790277937162544
w55bbf4f,correct,3961.3000000715256,808.1000000238419,335,2231.100000023842,2231.100000023842,TRUE,3,3039.2000000476837,335,3374.2000000476837,354,1,0.8214641766135318,1,0.7365733661595913
w55bbf4f,correct,2679,661,392.60000002384186,1004.7999999523163,1004.7999999523163,TRUE,3,1665.7999999523163,392.60000002384186,2058.399999976158,355,1,0.7972630683398105,1,0.4014366082233806
w55bbf4f,correct,3343.2999999523163,548.2999999523163,279.10000002384186,1730.1000000238419,1730.1000000238419,TRUE,3,2278.399999976158,279.10000002384186,2557.5,356,1,0.5465995713000955,0,-1.8591676016844265
w55bbf4f,correct,2356.900000095367,552.3000000715256,322.7999999523163,1109.3000000715256,1109.3000000715256,TRUE,3,1661.6000001430511,322.7999999523163,1984.4000000953674,357,1,0.6411472339891108,0,-1.8591676016844265
w55bbf4f,correct,3053.899999976158,533.1999999284744,1696,NA,1696,FALSE,2,533.1999999284744,1696,2229.1999999284744,358,0,-1.8591676016844265,1,0.666689431488004
w55bbf4f,correct,5123.799999952316,493.6999999284744,1017.7000000476837,3227.399999976158,3227.399999976158,TRUE,3,3721.0999999046326,1017.7000000476837,4738.799999952316,359,1,0.1953508682337805,1,0.3700581680671411
w55bbf4f,correct,4618.799999952316,1192.8999999761581,1019.2000000476837,986.6999999284744,997.5,FALSE,4,2179.5999999046326,2016.7000000476837,4196.299999952316,361,1,0.39505895947931957,1,0.6402918997909036
web412f0,correct,4779.700000047684,1718.2000000476837,1305.7999999523163,986.3000001907349,986.3000001907349,TRUE,3,2704.5000002384186,1305.7999999523163,4010.300000190735,362,1,0.8809981509331541,1,0.6547695405435046
web412f0,correct,3614.099999904633,1191.4000000953674,2123.7999999523163,NA,2123.7999999523163,FALSE,2,1191.4000000953674,2123.7999999523163,3315.2000000476837,363,1,0.3411404496249407,1,-1.0610931607247789
web412f0,correct,3402.100000143051,1288,1817.1000001430511,NA,1817.1000001430511,TRUE,2,1288,1817.1000001430511,3105.100000143051,364,1,0.42905623985869484,1,-0.43718590718111094
web412f0,correct,3225.7999999523163,1155.7999999523163,1799.2999999523163,NA,1799.2999999523163,FALSE,2,1155.7999999523163,1799.2999999523163,2955.0999999046326,365,1,-0.15240975050531053,1,0.3494264076176782
web412f0,correct,2746.100000143051,1103.9000000953674,1280.7999999523163,NA,1280.7999999523163,TRUE,2,1103.9000000953674,1280.7999999523163,2384.7000000476837,366,1,-0.6703261477980567,1,0.1752763387843412
web412f0,correct,2687.2999999523163,1001.2999999523163,1409.4000000953674,NA,1409.4000000953674,FALSE,2,1001.2999999523163,1409.4000000953674,2410.7000000476837,367,1,0.15989538512827395,1,0.2798104263155302
web412f0,correct,2775.5,871.7000000476837,1653.7000000476837,NA,1653.7000000476837,FALSE,2,871.7000000476837,1653.7000000476837,2525.4000000953674,368,1,-0.005981197489022652,1,0.61351067976625
web412f0,correct,3015.599999904633,998.7000000476837,1733.3999998569489,NA,1733.3999998569489,FALSE,2,998.7000000476837,1733.3999998569489,2732.0999999046326,369,1,0.5664800027497413,1,-0.44581712744651714
web412f0,correct,1976.5999999046328,937.3999998569489,632.9000000953674,NA,632.9000000953674,TRUE,2,937.3999998569489,632.9000000953674,1570.2999999523163,370,1,0.644479275865346,1,-0.13775181861701516
web412f0,correct,2981.400000095367,912.7000000476837,1859.2000000476837,NA,1859.2000000476837,FALSE,2,912.7000000476837,1859.2000000476837,2771.9000000953674,371,1,-1.297563288020113,1,-0.3792082884848719
web412f0,correct,2526.100000143051,871.9000000953674,1433.8999998569489,NA,1433.8999998569489,FALSE,2,871.9000000953674,1433.8999998569489,2305.7999999523163,372,1,-0.6232256952284863,1,0.8862092419079025
web412f0,correct,2289.100000143051,911.1000001430511,1084.2000000476837,NA,1084.2000000476837,TRUE,2,911.1000001430511,1084.2000000476837,1995.3000001907349,373,1,0.3950475039844555,1,0.5208866457542682
web412f0,correct,1862.3000001907349,800,612.1000001430511,NA,612.1000001430511,TRUE,2,800,612.1000001430511,1412.1000001430511,374,1,0.30914140759544406,1,0.7418801834303612
web412f0,correct,2739.899999856949,849.5,1514,NA,1514,FALSE,2,849.5,1514,2363.5,375,0,-5.13193058366162,1,0.16693261788909955
web412f0,correct,1813.2999999523165,799.2999999523163,758.1000001430511,NA,758.1000001430511,TRUE,2,799.2999999523163,758.1000001430511,1557.4000000953674,376,1,0.40380318322676656,1,-0.8242040088801162
web412f0,correct,1845,864.9000000953674,738.1999998092651,NA,738.1999998092651,TRUE,2,864.9000000953674,738.1999998092651,1603.0999999046326,377,1,0.26767654417579134,1,0.06473537660269169
web412f0,correct,2477.7999999523163,768.5999999046326,1545.7999999523163,NA,1545.7999999523163,FALSE,2,768.5999999046326,1545.7999999523163,2314.399999856949,378,1,-0.7169097892115678,1,0.5256275067999261
web412f0,correct,3070.7000000476837,1486.2000000476837,1278.1999998092651,NA,1278.1999998092651,FALSE,2,1486.2000000476837,1278.1999998092651,2764.399999856949,379,1,0.3484141262116098,1,0.6403899293433831
web412f0,correct,2370.7000000476837,815,1162.3000001907349,NA,1162.3000001907349,TRUE,2,815,1162.3000001907349,1977.3000001907349,380,1,0.7288430059067784,1,-0.4143033135599149
w310c0b6,correct,3945.79999999702,3409.5,NA,NA,3409.5,TRUE,1,3409.5,0,3409.5,381,1,-0.9393132520915912,1,-0.6487159321233301
w310c0b6,correct,4990.20000000298,4540.10000000149,NA,NA,4540.10000000149,TRUE,1,4540.10000000149,0,4540.10000000149,384,1,0.8585026174009072,0.5,-1.7249672072932318
w310c0b6,correct,8130.59999999404,1236.5999999940395,3919.2000000029802,NA,3919.2000000029802,FALSE,2,1236.5999999940395,3919.2000000029802,5155.79999999702,386,1,-0.5125474012417512,1,-0.7626563785555661
w310c0b6,correct,2678,2061.3000000044703,NA,NA,2061.3000000044703,TRUE,1,2061.3000000044703,0,2061.3000000044703,387,1,1.084870585703742,1,1.5717142404877795
w310c0b6,correct,10922.89999999851,1124.6999999955297,9171.39999999851,NA,9171.39999999851,FALSE,2,1124.6999999955297,9171.39999999851,10296.09999999404,388,1,0.37042675002313835,1,-0.7462407504606292
w310c0b6,correct,2789.10000000149,2084.10000000149,NA,NA,2084.10000000149,TRUE,1,2084.10000000149,0,2084.10000000149,389,1,0.954615341644085,0.5,-1.72369163807617
w310c0b6,correct,3739.60000000149,1575.8000000044703,1696.6999999955297,NA,1696.6999999955297,FALSE,2,1575.8000000044703,1696.6999999955297,3272.5,391,1,-1.3661905420734768,1,1.8709894894194201
w310c0b6,correct,3320.20000000298,2797.3000000044703,NA,NA,2797.3000000044703,TRUE,1,2797.3000000044703,0,2797.3000000044703,392,1,-0.5179641462254776,1,-0.6999756500969702
w310c0b6,correct,2132.70000000298,1545.7000000029802,NA,NA,1545.7000000029802,TRUE,1,1545.7000000029802,0,1545.7000000029802,393,1,1.4477457401856275,1,0.18098307510764194
w310c0b6,correct,7300,700.3000000044703,6306.29999999702,NA,6306.29999999702,FALSE,2,700.3000000044703,6306.29999999702,7006.60000000149,394,1,-0.06473444908780693,1,-0.005970479132821996
w310c0b6,correct,2405.60000000149,1788.3000000044703,NA,NA,1788.3000000044703,TRUE,1,1788.3000000044703,0,1788.3000000044703,395,1,-0.19847095682265548,1,-0.020254969167238315
w310c0b6,correct,3458,874.7999999970198,2282.2000000029802,NA,2282.2000000029802,FALSE,2,874.7999999970198,2282.2000000029802,3157,396,0.5,-1.8197459201776094,1,0.5432514066214424
w310c0b6,correct,3798.5,885.8999999985099,2542.60000000149,NA,2542.60000000149,FALSE,2,885.8999999985099,2542.60000000149,3428.5,397,0.5,-1.3427501868303142,1,0.09954012147119697
w310c0b6,correct,4332.39999999851,3589.3000000044703,NA,NA,3589.3000000044703,TRUE,1,3589.3000000044703,0,3589.3000000044703,398,1,1.6919040691346074,1,0.17049847740347845
w310c0b6,correct,5811.60000000149,908.3999999985099,2435.3000000044703,1842.2999999970198,1842.2999999970198,TRUE,3,2750.6999999955297,2435.3000000044703,5186,399,1,0.5110915965768403,1,0.05652481787571677
w50a5f2a,correct,4902,1179.7000000178814,959.5999999940395,1968.5,1968.5,TRUE,3,3148.2000000178814,959.5999999940395,4107.800000011921,400,1,0.5457590582810488,0,-1.7825257434856918
w50a5f2a,correct,5620.4000000059605,771.1999999880791,4116.300000011921,NA,4116.300000011921,FALSE,2,771.1999999880791,4116.300000011921,4887.5,401,1,0.5589831595579482,1,0.429928054085776
w50a5f2a,correct,4168.5999999940395,856.5,644.4000000059605,1734.2999999821186,1734.2999999821186,TRUE,3,2590.7999999821186,644.4000000059605,3235.199999988079,402,1,0.6298287162667752,0,-1.7825257434856918
w50a5f2a,correct,4393.5,796.5,715.5,2181.5999999940395,2181.5999999940395,TRUE,3,2978.0999999940395,715.5,3693.5999999940395,403,1,0.3506739408893507,1,0.8111354593918815
w50a5f2a,correct,3064.2000000178814,930.5999999940395,1531.4000000059605,NA,1531.4000000059605,FALSE,2,930.5999999940395,1531.4000000059605,2462,404,0,-1.7825257434856918,1,0.4298416207263732
w50a5f2a,correct,3345.4000000059605,640.0999999940395,2174.2000000178814,NA,2174.2000000178814,FALSE,2,640.0999999940395,2174.2000000178814,2814.300000011921,405,1,0.757149455631391,1,0.6949654544269698
w50a5f2a,correct,3259.800000011921,643.0999999940395,1981.800000011921,NA,1981.800000011921,FALSE,2,643.0999999940395,1981.800000011921,2624.9000000059605,406,1,0.5627987405794307,1,0.643232439430382
w50a5f2a,correct,2411.5,622.0999999940395,1413.2999999821186,NA,1413.2999999821186,FALSE,2,622.0999999940395,1413.2999999821186,2035.3999999761581,407,1,0.38117731315850356,1,0.8933970417676779
w50a5f2a,correct,3443.0999999940395,552.5,2257.300000011921,NA,2257.300000011921,FALSE,2,552.5,2257.300000011921,2809.800000011921,408,0,-1.7825257434856918,1,0.17680656408753276
w50a5f2a,correct,2556,588.7000000178814,1527,NA,1527,FALSE,2,588.7000000178814,1527,2115.7000000178814,409,1,0.6225777096187622,1,0.21033377095005537
w50a5f2a,correct,2597.7000000178814,610.7000000178814,1540.5,NA,1540.5,FALSE,2,610.7000000178814,1540.5,2151.2000000178814,410,1,0.799426627906279,1,0.14698655403620325
w50a5f2a,correct,2282.5,490,1365.2000000178814,NA,1365.2000000178814,FALSE,2,490,1365.2000000178814,1855.2000000178814,411,0,-1.7825257434856918,1,0.6989598477275045
w50a5f2a,correct,2147.0999999940395,521.5,1280.300000011921,NA,1280.300000011921,FALSE,2,521.5,1280.300000011921,1801.800000011921,412,0,-1.7825257434856918,1,0.7976134846507766
w50a5f2a,correct,3037.9000000059605,514,741.4000000059605,1370.9000000059605,1370.9000000059605,TRUE,3,1884.9000000059605,741.4000000059605,2626.300000011921,413,1,0.4924235926180286,1,0.25586494717326874
w50a5f2a,correct,2580.5999999940395,470.19999998807907,1552.2000000178814,NA,1552.2000000178814,FALSE,2,470.19999998807907,1552.2000000178814,2022.4000000059605,414,1,0.4135119111774052,1,0.7111415651922552
w50a5f2a,correct,2695.9000000059605,663.4000000059605,434,1119.699999988079,1119.699999988079,TRUE,3,1783.0999999940395,434,2217.0999999940395,415,1,0.6997674838298767,1,0.6036367848213732
w50a5f2a,correct,6557.5999999940395,629.6999999880791,2478,2066.4000000059605,1179,FALSE,4,2696.0999999940395,3657,6353.0999999940395,417,0,-1.7825257434856918,1,7.427079345779274e-4
w50a5f2a,correct,2807.5999999940395,889.5999999940395,652.5999999940395,860,860,TRUE,3,1749.5999999940395,652.5999999940395,2402.199999988079,418,1,0.7489929174896162,1,0.47300526209330923
w5c1050d,correct,5760.799999999814,2145,689.7999999998137,1967.800000000745,1967.800000000745,TRUE,3,4112.800000000745,689.7999999998137,4802.600000000559,420,1,0.29001644844926755,0,-2.1957105716896965
w5c1050d,correct,6344.899999999441,1483.0999999996275,1154.6000000005588,629.8999999994412,1250.2000000001863,TRUE,4,2112.9999999990687,2404.800000000745,4517.799999999814,421,1,0.7398473257895016,1,0.6101285574212107
w5c1050d,correct,4170.700000000186,779.2000000001863,2100.699999999255,389.40000000037253,389.40000000037253,TRUE,3,1168.6000000005588,2100.699999999255,3269.2999999998137,424,1,0.7617034177187799,1,0.7047433709775666
w5c1050d,correct,3286.4000000003725,734.4000000003725,1679.9000000003725,NA,1679.9000000003725,FALSE,2,734.4000000003725,1679.9000000003725,2414.300000000745,425,1,0.4652670896241326,1,0.7008926428423259
w5c1050d,correct,3570.9000000003725,884.6000000005588,1965.199999999255,NA,1965.199999999255,FALSE,2,884.6000000005588,1965.199999999255,2849.7999999998137,426,1,0.6039995064236429,1,0.5456372904766295
w5c1050d,correct,3135.2000000001863,539.9000000003725,1004.4000000003725,839.8999999994412,839.8999999994412,TRUE,3,1379.7999999998137,1004.4000000003725,2384.2000000001863,427,1,0.19184194322315198,0,-2.1957105716896965
w5c1050d,correct,3884.900000000373,689.1000000005588,675.1999999992549,1469.7000000001863,1469.7000000001863,TRUE,3,2158.800000000745,675.1999999992549,2834,428,1,0.26127462530913675,0.5,-1.1399200563346499
w5c1050d,correct,2865.7000000001863,629.4000000003725,600,990,990,TRUE,3,1619.4000000003725,600,2219.4000000003725,429,1,0.6820094419883747,1,0.4232540562218968
w5c1050d,correct,3345.4000000003725,838.8000000007451,1185.199999999255,884.8000000007451,884.8000000007451,TRUE,3,1723.6000000014901,1185.199999999255,2908.800000000745,430,1,0.5995393889554563,1,-0.07996682219646645
w5c1050d,correct,3390.7999999998137,764.4000000003725,1800.0999999996275,NA,1800.0999999996275,FALSE,2,764.4000000003725,1800.0999999996275,2564.5,431,1,0.6443314344771285,1,0.18738205700801353
w5c1050d,correct,3090.600000000559,809.2000000001863,1559.9000000003725,NA,1559.9000000003725,FALSE,2,809.2000000001863,1559.9000000003725,2369.100000000559,432,0,-2.1957105716896965,1,0.624303850490029
w5c1050d,correct,2835.600000000559,704.7000000001863,1664.6000000005588,NA,1664.6000000005588,FALSE,2,704.7000000001863,1664.6000000005588,2369.300000000745,433,1,0.19307794624762686,1,0.6238823954554367
w5c1050d,correct,3645.100000000559,824,1395.2999999998137,916.2000000001863,916.2000000001863,TRUE,3,1740.2000000001863,1395.2999999998137,3135.5,434,1,0.6683380086466578,1,0.3142153291070301
w5c1050d,correct,2472.7000000001863,749.1000000005588,1379.0999999996275,NA,1379.0999999996275,FALSE,2,749.1000000005588,1379.0999999996275,2128.2000000001863,436,1,4.277590236911678e-4,1,0.6653375278048048
w5c1050d,correct,3315.0999999996275,688.5,1395.3999999994412,884.5,884.5,TRUE,3,1573,1395.3999999994412,2968.399999999441,437,1,0.47825672976574485,1,0.026945026084884603
w1df6428,correct,2822.9000000059605,2109.9000000059605,NA,NA,2109.9000000059605,TRUE,1,2109.9000000059605,0,2109.9000000059605,438,1,0.49674984162864394,1,-0.18309581616504148
w1df6428,correct,2756.5,780.4000000059605,352.90000000596046,1234.0999999940395,1234.0999999940395,TRUE,3,2014.5,352.90000000596046,2367.4000000059605,439,1,0.1437793775320881,1,0.6460074154822696
w1df6428,correct,2055.899999976158,1341.199999988079,NA,NA,1341.199999988079,TRUE,1,1341.199999988079,0,1341.199999988079,440,1,0.1970045245305133,1,0.5759514450746354
w1df6428,correct,2820.399999976158,928.3999999761581,1397.9000000059605,NA,1397.9000000059605,FALSE,2,928.3999999761581,1397.9000000059605,2326.2999999821186,441,1,0.09567086647075307,1,0.5735908281665695
w1df6428,correct,1842.4000000059605,1539.7000000178814,NA,NA,1539.7000000178814,TRUE,1,1539.7000000178814,0,1539.7000000178814,442,1,0.3186966064083523,1,-0.6820198373567601
w1df6428,correct,2579,831.0999999940395,1381.800000011921,NA,1381.800000011921,FALSE,2,831.0999999940395,1381.800000011921,2212.9000000059605,443,0,-4.080594140653201,1,0.48046537767656056
w1df6428,correct,2454.5999999940395,645.5999999940395,486.90000000596046,912.2999999821186,912.2999999821186,TRUE,3,1557.8999999761581,486.90000000596046,2044.7999999821186,444,1,0.4632678621597307,1,0.011865221541021691
w1df6428,correct,2177.4000000059605,622.2000000178814,1342.5,NA,1342.5,FALSE,2,622.2000000178814,1342.5,1964.7000000178814,445,1,0.2836525775142711,1,0.12182876431117597
w1df6428,correct,1626,1213.0999999940395,NA,NA,1213.0999999940395,TRUE,1,1213.0999999940395,0,1213.0999999940395,446,1,0.19848883463921022,1,0.4410165928010132
w1df6428,correct,2226,625.8000000119209,1289.199999988079,NA,1289.199999988079,FALSE,2,625.8000000119209,1289.199999988079,1915,447,1,0.5465967259828642,1,0.48877613632808964
w1df6428,correct,2192.4000000059605,611.8000000119209,1354.9000000059605,NA,1354.9000000059605,FALSE,2,611.8000000119209,1354.9000000059605,1966.7000000178814,448,1,0.11855327276657954,1,0.21797628624342197
w1df6428,correct,2213.699999988079,609,1415.7999999821186,NA,1415.7999999821186,FALSE,2,609,1415.7999999821186,2024.7999999821186,450,1,0.46394603399215645,1,0.5465364199392075
w1df6428,correct,1877.800000011921,430.5,1233.9000000059605,NA,1233.9000000059605,FALSE,2,430.5,1233.9000000059605,1664.4000000059605,451,1,0.33981691515778323,1,0.5340257963993588
w1df6428,correct,2064.600000023842,490.2000000178814,1379.699999988079,NA,1379.699999988079,FALSE,2,490.2000000178814,1379.699999988079,1869.9000000059605,452,1,0.25791548154742755,1,0.16315516431217278
w1df6428,correct,1754.2000000178814,1363,NA,NA,1363,TRUE,1,1363,0,1363,453,1,-0.7142656497920341,1,-0.2858701942568502
w1df6428,correct,1988,621.1999999880791,1116.699999988079,NA,1116.699999988079,FALSE,2,621.1999999880791,1116.699999988079,1737.8999999761581,454,0,-4.080594140653201,1,0.42103668254139165
w1df6428,correct,1859.7000000178816,451.5,1059.0999999940395,NA,1059.0999999940395,FALSE,2,451.5,1059.0999999940395,1510.5999999940395,455,1,0.10412761378361123,1,0.1339006964192689
w1df6428,correct,3436.4000000059605,1938.300000011921,449,837,837,TRUE,3,2775.300000011921,449,3224.300000011921,456,1,0.45406852512330487,1,0.11508130130281823
w133cdda,correct,3804.399999856949,2980.7999999523163,NA,NA,2980.7999999523163,TRUE,1,2980.7999999523163,0,2980.7999999523163,457,1,0.9156873051988921,1,0.4901524327326592
w133cdda,correct,4005.599999904633,810.2000000476837,2289.699999809265,NA,2289.699999809265,FALSE,2,810.2000000476837,2289.699999809265,3099.899999856949,458,1,-0.6364965639252655,1,0.22207456184646251
w133cdda,correct,4292,915.2000000476837,641.4000000953674,2389.7000000476837,2389.7000000476837,TRUE,3,3304.9000000953674,641.4000000953674,3946.300000190735,459,1,0.24103588155094738,1,0.5491688600521114
w133cdda,correct,2265.2000000476837,1729.2000000476837,NA,NA,1729.2000000476837,TRUE,1,1729.2000000476837,0,1729.2000000476837,460,1,0.49487957439259656,0,-2.45286676881151
w133cdda,correct,3752.399999856949,656.2999999523163,1848.3999998569489,NA,1848.3999998569489,FALSE,2,656.2999999523163,1848.3999998569489,2504.699999809265,461,0,-2.45286676881151,1,0.2798533095724494
w133cdda,correct,4304.200000047684,1304.9000000953674,737.7999999523163,1268.7999999523163,1268.7999999523163,TRUE,3,2573.7000000476837,737.7999999523163,3311.5,462,1,0.8955659778501442,1,0.15246109167923266
w133cdda,correct,3818.399999856949,884.5,619.2999999523163,1931.7999999523163,1931.7999999523163,TRUE,3,2816.2999999523163,619.2999999523163,3435.5999999046326,463,1,0.35873728531015353,1,0.4682412141609599
w133cdda,correct,3021.7999999523163,992.4000000953674,1634,NA,1634,FALSE,2,992.4000000953674,1634,2626.4000000953674,464,1,-0.10950369035659452,1,0.6430564155036964
w133cdda,correct,3287.2000000476837,1278.9000000953674,1563.2999999523163,NA,1563.2999999523163,FALSE,2,1278.9000000953674,1563.2999999523163,2842.2000000476837,465,1,-0.10856622194111717,1,0.5799283016455957
w133cdda,correct,2046.5,1681.9000000953674,NA,NA,1681.9000000953674,TRUE,1,1681.9000000953674,0,1681.9000000953674,467,1,0.5439121901584498,1,0.43106673820199254
w133cdda,correct,2694.900000095367,608,1689.2999999523163,NA,1689.2999999523163,FALSE,2,608,1689.2999999523163,2297.2999999523163,468,1,-0.30875023180386413,1,0.6689455539493908
w133cdda,correct,3516.899999856949,1588.5999999046326,1657.2999999523163,NA,1657.2999999523163,FALSE,2,1588.5999999046326,1657.2999999523163,3245.899999856949,469,1,0.2941001370761427,1,0.542853924346901
w133cdda,correct,2757.7000000476837,804.5,1575.7000000476837,NA,1575.7000000476837,FALSE,2,804.5,1575.7000000476837,2380.2000000476837,470,1,-0.544550386459571,1,0.07259782562719384
w133cdda,correct,2828.7000000476837,864.8999998569489,1530.3000001907349,NA,1530.3000001907349,FALSE,2,864.8999998569489,1530.3000001907349,2395.2000000476837,471,1,0.38434053870461504,1,0.7279405880942976
w133cdda,correct,3086,642.2999999523163,2007.7999999523163,NA,2007.7999999523163,FALSE,2,642.2999999523163,2007.7999999523163,2650.0999999046326,472,1,0.48175025500940133,1,0.7154527924019365
w133cdda,correct,3568.7000000476837,1614.2999999523163,684.8000001907349,987,987,TRUE,3,2601.2999999523163,684.8000001907349,3286.100000143051,473,1,0.14408068725671025,1,0.4829816612481065
w133cdda,correct,4168.700000047684,974.7000000476837,995.2000000476837,1607.0999999046326,1607.0999999046326,TRUE,3,2581.7999999523163,995.2000000476837,3577,474,1,0.2406843634101153,0,-2.45286676881151
w133cdda,correct,1971.3999998569489,1739.7999999523163,NA,NA,1739.7999999523163,TRUE,1,1739.7999999523163,0,1739.7999999523163,475,1,0.08039903198899294,1,0.31970667293437965
w596775d,correct,4513.299999952316,1018.1999998092651,666.3000001907349,1393.3999998569489,1393.3999998569489,TRUE,3,2411.599999666214,666.3000001907349,3077.899999856949,476,1,1.3004260218969295,1,0.7565040617984113
w596775d,correct,4778.200000047684,1095.9000000953674,1045.3999998569489,2075.7000000476837,2075.7000000476837,TRUE,3,3171.600000143051,1045.3999998569489,4217,477,1,1.3059140709510089,1,1.1919033894134898
w596775d,correct,4668.900000095367,965,531.6000001430511,2078.699999809265,2078.699999809265,TRUE,3,3043.699999809265,531.6000001430511,3575.2999999523163,478,1,0.9686284134991422,1,1.1482893245876367
w596775d,correct,3069.899999856949,648.7999999523163,533.7999999523163,1401.2000000476837,1401.2000000476837,TRUE,3,2050,533.7999999523163,2583.7999999523163,479,1,1.3817022073306178,0,-0.8838385691187972
w596775d,correct,3648.799999952316,692.5,2063.9000000953674,NA,2063.9000000953674,FALSE,2,692.5,2063.9000000953674,2756.4000000953674,480,0,-0.8838385691187972,1,0.6894128514870751
w596775d,correct,3212.900000095367,758.8000001907349,1788.5,NA,1788.5,FALSE,2,758.8000001907349,1788.5,2547.300000190735,483,0,-0.8838385691187972,1,1.1859482045364742
w596775d,correct,4354,970.2000000476837,2546.2999999523163,NA,2546.2999999523163,FALSE,2,970.2000000476837,2546.2999999523163,3516.5,485,0,-0.8838385691187972,1,0.9055218183296064
w596775d,correct,3152.7999999523163,866.5,1860.7999999523163,NA,1860.7999999523163,FALSE,2,866.5,1860.7999999523163,2727.2999999523163,486,0,-0.8838385691187972,1,1.3703606044904588
w596775d,correct,3407.5,997.3000001907349,1569.3999998569489,NA,1569.3999998569489,FALSE,2,997.3000001907349,1569.3999998569489,2566.7000000476837,487,0,-0.8838385691187972,1,0.8613168704651182
w596775d,correct,3410.2999999523163,787.4000000953674,424.19999980926514,1428.9000000953674,1428.9000000953674,TRUE,3,2216.300000190735,424.19999980926514,2640.5,491,1,1.0635206703587523,1,1.1906206730145588
w596775d,correct,3299.5,1192.1000001430511,526.1999998092651,923.6000001430511,923.6000001430511,TRUE,3,2115.7000002861023,526.1999998092651,2641.9000000953674,492,1,1.2129156522089246,0,-0.8838385691187972
w596775d,correct,3092.2999999523163,812.9000000953674,1825.2999999523163,NA,1825.2999999523163,FALSE,2,812.9000000953674,1825.2999999523163,2638.2000000476837,493,0,-0.8838385691187972,1,1.0065908363473752
w596775d,correct,3268,763.5,381.2000000476837,1464.2000000476837,1464.2000000476837,TRUE,3,2227.7000000476837,381.2000000476837,2608.9000000953674,494,1,1.164666353716396,1,0.7402064961815444
wcc0f8d5,correct,3755.299999237061,1082.7999992370605,2238.8999996185303,NA,2238.8999996185303,FALSE,2,1082.7999992370605,2238.8999996185303,3321.699998855591,495,0,-1.2136897461630811,1,0.9089185678529662
wcc0f8d5,correct,2990.199998855591,811.6000003814697,1819,NA,1819,FALSE,2,811.6000003814697,1819,2630.6000003814697,497,0,-1.2136897461630811,1,0.7508487625513686
wcc0f8d5,correct,3389.5,526.2000007629395,1009.6999988555908,1545.6000003814697,1545.6000003814697,TRUE,3,2071.800001144409,1009.6999988555908,3081.5,498,1,0.5179621084824133,1,0.8709266599877326
wcc0f8d5,correct,2535.2999992370605,491.8999996185303,1569,NA,1569,FALSE,2,491.8999996185303,1569,2060.8999996185303,499,0,-1.2136897461630811,1,0.7581891986071435
wcc0f8d5,correct,2261.7000007629395,489.5,1392.5,NA,1392.5,FALSE,2,489.5,1392.5,1882,500,1,0.4012693803056466,1,1.014765289164087
wcc0f8d5,correct,2391.3999996185303,524.3999996185303,812.8000011444092,574.6999988555908,574.6999988555908,TRUE,3,1099.099998474121,812.8000011444092,1911.8999996185303,501,1,0.7462665471881718,0.5,-0.2695995057676745
wcc0f8d5,correct,2346,592.3999996185303,1325,NA,1325,FALSE,2,592.3999996185303,1325,1917.3999996185303,502,0,-1.2136897461630811,1,0.6430164363774549
wcc0f8d5,correct,2481.2000007629395,617.7000007629395,629.5,859.5999984741211,859.5999984741211,TRUE,3,1477.2999992370605,629.5,2106.7999992370605,503,1,0.9567076174819876,1,0.9586552849143315
wcc0f8d5,correct,2297.300001144409,548.1000003814697,550,774.8999996185303,774.8999996185303,TRUE,3,1323,550,1873,504,1,1.0847597584664663,1,0.7553654699672261
wcc0f8d5,correct,2147.300001144409,553.2000007629395,1141.2999992370605,NA,1141.2999992370605,FALSE,2,553.2000007629395,1141.2999992370605,1694.5,505,0,-1.2136897461630811,1,0.6714638423081426
wcc0f8d5,correct,2137.300001144409,523.1000003814697,1139.5,NA,1139.5,FALSE,2,523.1000003814697,1139.5,1662.6000003814697,506,0,-1.2136897461630811,1,1.216942252118019
wcc0f8d5,correct,2667,563.3000011444092,790.6000003814697,518.6999988555908,518.6999988555908,TRUE,3,1082,790.6000003814697,1872.6000003814697,507,1,1.0976841455159232,0,-1.2136897461630811
wcc0f8d5,correct,2302.2000007629395,454,799.6000003814697,729.6000003814697,729.6000003814697,TRUE,3,1183.6000003814697,799.6000003814697,1983.2000007629395,508,1,0.9616644281793072,0,-1.2136897461630811
wcc0f8d5,correct,2400.8999996185303,592.2999992370605,1404.2000007629395,NA,1404.2000007629395,FALSE,2,592.2999992370605,1404.2000007629395,1996.5,509,0,-1.2136897461630811,1,-0.11235783221199146
wcc0f8d5,correct,2806.7000007629395,673.7999992370605,1693.900001525879,NA,1693.900001525879,FALSE,2,673.7999992370605,1693.900001525879,2367.7000007629395,510,0,-1.2136897461630811,1,-0.06304451136326315
wcc0f8d5,correct,1930.5,506.5,934.6000003814697,NA,934.6000003814697,FALSE,2,506.5,934.6000003814697,1441.1000003814697,512,0,-1.2136897461630811,1,0.9992822571880771
wcc0f8d5,correct,2047.3999996185305,484.20000076293945,449.1000003814697,700.2999992370605,700.2999992370605,TRUE,3,1184.5,449.1000003814697,1633.6000003814697,513,1,1.0291356180337523,1,0.9671785154066882
wdd049e2,correct,3449.2000000001863,559.2999999998137,2190.7000000001863,NA,2190.7000000001863,FALSE,2,559.2999999998137,2190.7000000001863,2750,515,0.5,-1.4419661167913997,1,0.20478713227215004
wdd049e2,correct,3599.600000000559,619.6000000005588,389.8999999994412,590,1170.6000000005588,FALSE,4,1209.6000000005588,1560.5,2770.100000000559,516,1,-0.16080711462757918,1,0.9964320252282319
wdd049e2,correct,3179.600000000559,789.6000000005588,1690.0999999996275,NA,1690.0999999996275,FALSE,2,789.6000000005588,1690.0999999996275,2479.7000000001863,517,1,-1.7979475080060203,1,0.41537597211200167
wdd049e2,correct,3628.899999999441,1439.2000000001863,1549.8999999994412,NA,1549.8999999994412,FALSE,2,1439.2000000001863,1549.8999999994412,2989.0999999996275,518,0.5,-1.296589036763734,1,0.7076946548611396
wdd049e2,correct,3989.600000000559,719.5,680,1940.4000000003725,1940.4000000003725,TRUE,3,2659.9000000003725,680,3339.9000000003725,519,0.5,-0.7744167870136738,0,-2.3908361770002253
wdd049e2,correct,2549.600000000559,529.6000000005588,1499.7999999998137,NA,1499.7999999998137,FALSE,2,529.6000000005588,1499.7999999998137,2029.4000000003725,520,1,0.7115549363496014,1,0.46127537023808973
wdd049e2,correct,3409.2000000001863,589.1000000005588,2330.2999999998137,NA,2330.2999999998137,FALSE,2,589.1000000005588,2330.2999999998137,2919.4000000003725,521,0,-2.3908361770002253,1,-1.4000274432212971
wdd049e2,correct,2819.199999999255,550.3999999994412,419.20000000018626,1279.4000000003725,1279.4000000003725,TRUE,3,1829.7999999998137,419.20000000018626,2249,522,1,0.5242942508312566,1,-0.029207712269439363
wdd049e2,correct,2619.100000000559,739.1000000005588,1580.5999999996275,NA,1580.5999999996275,FALSE,2,739.1000000005588,1580.5999999996275,2319.7000000001863,523,1,0.43302158696823356,1,0.011072564802859074
wdd049e2,correct,2929.300000000745,710.4000000003725,638.9000000003725,970.0999999996275,970.0999999996275,TRUE,3,1680.5,638.9000000003725,2319.4000000003725,524,1,0.7879282106251714,1,-0.35233250883348244
wdd049e2,correct,3339.5,609.7999999998137,1109.5,1080.1000000005588,1080.1000000005588,TRUE,3,1689.9000000003725,1109.5,2799.4000000003725,525,1,0.11865043207807292,1,0.6159719339945542
wdd049e2,correct,2508.9000000003725,709.0999999996275,1500.4000000003725,NA,1500.4000000003725,FALSE,2,709.0999999996275,1500.4000000003725,2209.5,526,1,0.6909453272557461,1,0.9121758594781588
wdd049e2,correct,3079.399999999441,610.0999999996275,1239.1000000005588,570.3999999994412,570.3999999994412,TRUE,3,1180.4999999990687,1239.1000000005588,2419.5999999996275,527,1,1.0244686911310135,1,0.69805047447615
wdd049e2,correct,3189.7000000001863,589.4000000003725,1240.2000000001863,829.2999999998137,829.2999999998137,TRUE,3,1418.7000000001863,1240.2000000001863,2658.9000000003725,528,1,-0.5848210568503747,1,0.4962976595816792
wdd049e2,correct,2749.5999999996275,509.59999999962747,780.5999999996275,1109.5,1109.5,TRUE,3,1619.0999999996275,780.5999999996275,2399.699999999255,529,1,0.7117168501321832,1,0.14604618059920838
wdd049e2,correct,2329.9000000003725,539.7000000001863,1429.8999999994412,NA,1429.8999999994412,FALSE,2,539.7000000001863,1429.8999999994412,1969.5999999996275,530,1,0.6933896507149452,1,0.6682141310740022
wdd049e2,correct,3590.2000000001863,869.2999999998137,2159.9000000003725,NA,2159.9000000003725,FALSE,2,869.2999999998137,2159.9000000003725,3029.2000000001863,531,1,0.2219637560471794,1,0.5722528206804627
wdd049e2,correct,2619.0999999996275,530.4000000003725,958.8999999994412,780.2000000001863,780.2000000001863,TRUE,3,1310.6000000005588,958.8999999994412,2269.5,532,1,0.8123850918427584,1,0.7423830401903103
weaf785a,correct,3168.600000023842,539.5,2068.7999999523163,NA,2068.7999999523163,FALSE,2,539.5,2068.7999999523163,2608.2999999523163,533,1,0.7426418209650022,1,0.49137689299970055
weaf785a,correct,2937.1999999284744,2532.100000023842,NA,NA,2532.100000023842,TRUE,1,2532.100000023842,0,2532.100000023842,534,1,0.3291391818583185,1,0.49457844314004856
weaf785a,correct,3312.8000000715256,571,1875.8000000715256,NA,1875.8000000715256,FALSE,2,571,1875.8000000715256,2446.8000000715256,535,1,-0.5034543993022184,1,0.642269842374529
weaf785a,correct,3180.599999904633,682.1999999284744,607.2000000476837,1586.1000000238419,1586.1000000238419,TRUE,3,2268.2999999523163,607.2000000476837,2875.5,536,1,0.608805893789375,1,0.5756571833344759
weaf785a,correct,2574.5,481.39999997615814,1633.9000000953674,NA,1633.9000000953674,FALSE,2,481.39999997615814,1633.9000000953674,2115.3000000715256,538,0.5,-1.1354897191072555,1,0.5778928974456822
weaf785a,correct,2551.7999999523163,506.5,1803.1999999284744,NA,1803.1999999284744,FALSE,2,506.5,1803.1999999284744,2309.6999999284744,539,1,0.2752773731512533,1,0.32302368010724136
weaf785a,correct,3628.100000023842,637.5,644.8999999761581,1818.6000000238419,1818.6000000238419,TRUE,3,2456.100000023842,644.8999999761581,3101,540,1,0.31737865246125846,1,0.2761703260104928
weaf785a,correct,2445.2000000476837,595.8999999761581,420.3000000715256,1126.3999999761581,1126.3999999761581,TRUE,3,1722.2999999523163,420.3000000715256,2142.600000023842,541,1,0.6165727357421519,1,0.6253586142554812
weaf785a,correct,2435.7999999523163,692.6000000238419,1368.6999999284744,NA,1368.6999999284744,FALSE,2,692.6000000238419,1368.6999999284744,2061.2999999523163,542,1,0.6544735941889751,1,0.6851262327805299
weaf785a,correct,3847.200000047684,1009.6000000238419,499.7999999523163,321.8000000715256,1230.2999999523163,TRUE,5,2561.7000000476837,835.6999999284744,3397.399999976158,543,1,0.6825613674954778,1,0.2660890719143691
weaf785a,correct,2223.399999976158,153.69999992847443,553.6000000238419,1187.8999999761581,1187.8999999761581,TRUE,3,1341.5999999046326,553.6000000238419,1895.1999999284744,545,1,0.37050069907447397,1,0.07374387338224622
weaf785a,correct,2463.3000000715256,502.10000002384186,1400.1000000238419,NA,1400.1000000238419,FALSE,2,502.10000002384186,1400.1000000238419,1902.2000000476837,546,1,0.3991495344189723,1,0.5309131243105448
weaf785a,correct,3692.1999999284744,1751,498.1999999284744,547.6000000238419,547.6000000238419,TRUE,3,2298.600000023842,498.1999999284744,2796.7999999523163,547,1,0.4417970453099343,1,0.047676975192383564
weaf785a,correct,2514.7000000476837,422.2000000476837,1789,NA,1789,FALSE,2,422.2000000476837,1789,2211.2000000476837,548,1,0.2197691622986122,1,0.5205731234553148
weaf785a,correct,2001,427.10000002384186,1265.8999999761581,NA,1265.8999999761581,FALSE,2,427.10000002384186,1265.8999999761581,1693,549,0,-2.453465186672545,1,0.5972501186216418
weaf785a,correct,2698.7000000476837,463.39999997615814,461.10000002384186,1206.3999999761581,1206.3999999761581,TRUE,3,1669.7999999523163,461.10000002384186,2130.899999976158,550,1,0.23455055911392142,1,0.5877175541475533
weaf785a,correct,2489.100000023842,749,1331.7000000476837,NA,1331.7000000476837,FALSE,2,749,1331.7000000476837,2080.7000000476837,551,0,-2.453465186672545,1,0.38659386573524024
w7a95cdf,correct,11360,1462,836,6916,6916,TRUE,3,8378,836,9214,553,0.5,0.013135478216624566,0.5,-0.35879841528190193
w7a95cdf,correct,9696,559,8119,NA,8119,FALSE,2,559,8119,8678,555,1,1.0949677662476685,1,1.4974446524379488
w7a95cdf,correct,5714,547,4405,NA,4405,FALSE,2,547,4405,4952,556,0,-1.2934415482088983,1,0.8015080960843503
w7a95cdf,correct,7949,366,7145,NA,7145,FALSE,2,366,7145,7511,557,0.5,-0.6709761994381591,0.5,-0.2615529419299624
w7a95cdf,correct,4150,232,3131,NA,3131,FALSE,2,232,3131,3363,558,0.5,-0.5106295893124037,0.5,-0.2755274002060249
w7a95cdf,correct,6095,389,1221,3194,3194,TRUE,3,3583,1221,4804,559,1,0.6681363474483418,0.5,-0.771026042253005
w7a95cdf,correct,6256,619,5147,NA,5147,FALSE,2,619,5147,5766,560,0.5,-0.2937086999592358,1,1.8134695709180395
w7a95cdf,correct,12429,434,1354,9959,9959,TRUE,3,10393,1354,11747,561,0.5,-0.08117559151945516,0.5,-1.1960803173954346
w7a95cdf,correct,10702,629,1151,7021,7021,TRUE,3,7650,1151,8801,563,1,1.9135413672047348,1,0.8342795022584961
w7a95cdf,correct,8911,403,847,6958,6958,TRUE,3,7361,847,8208,564,1,0.8091235981273064,0.5,-0.8590913559400525
w7a95cdf,correct,11065,301,755,519,8819,FALSE,4,820,9574,10394,565,0,-1.2934415482088983,0.5,0.3566772607453834
w7a95cdf,correct,8201,314,7081,NA,7081,FALSE,2,314,7081,7395,567,1,0.12813561589513606,1,1.6937698690970502
w7a95cdf,correct,6000,558,1238,3922,3922,TRUE,3,4480,1238,5718,568,0.5,0.010976965523622654,0.5,0.05023819680892911
w7a95cdf,correct,3355,576,2474,NA,2474,FALSE,2,576,2474,3050,569,0,-1.2934415482088983,1,0.45943864811870827
wf6f1fe5,correct,2816.5,737.2000000029802,806.2000000029802,951.8999999910593,951.8999999910593,TRUE,3,1689.0999999940395,806.2000000029802,2495.2999999970198,571,1,0.7084421062844447,0,-1.6597846838628227
wf6f1fe5,correct,3837.29999999702,637,2402,NA,2402,FALSE,2,637,2402,3039,572,1,0.48737986149166185,1,0.7696256104191841
wf6f1fe5,correct,3132.3999999910593,618,899.7999999970198,1284.2000000029802,1284.2000000029802,TRUE,3,1902.2000000029802,899.7999999970198,2802,573,1,0.842774871406224,1,0.6849032505499358
wf6f1fe5,correct,3261.79999999702,582.3999999910593,833.8000000119209,1576.199999988079,1576.199999988079,TRUE,3,2158.5999999791384,833.8000000119209,2992.3999999910593,574,1,0.5799097074315845,0,-1.6597846838628227
wf6f1fe5,correct,2470,592.0999999940395,591.1000000089407,904.2000000029802,904.2000000029802,TRUE,3,1496.2999999970198,591.1000000089407,2087.4000000059605,575,1,0.45744346923057183,1,0.6931344637184248
wf6f1fe5,correct,3644.900000005961,769.2999999970198,1240.7999999970198,425.70000000298023,921.7000000029802,FALSE,4,1195,2162.5,3357.5,576,0,-1.6597846838628227,1,0.5572567685579229
wf6f1fe5,correct,3778.599999994039,837.5999999940395,894.2999999970198,1645.9000000059605,1645.9000000059605,TRUE,3,2483.5,894.2999999970198,3377.7999999970198,577,1,0.4736107446005506,1,0.3683978831346275
wf6f1fe5,correct,3747,876.4000000059605,2496.5,NA,2496.5,FALSE,2,876.4000000059605,2496.5,3372.9000000059605,578,0.5,-0.4607874612248131,1,0.24590576445414453
wf6f1fe5,correct,3458.1000000089407,825.7999999970198,923,1363.800000011921,1363.800000011921,TRUE,3,2189.6000000089407,923,3112.6000000089407,579,1,0.35828881654554035,1,0.59286484142227025
wf6f1fe5,correct,2952.79999999702,795.2000000029802,1834.2999999970198,NA,1834.2999999970198,FALSE,2,795.2000000029802,1834.2999999970198,2629.5,580,0,-1.6597846838628227,1,0.5895639898362715
wf6f1fe5,correct,2513.29999999702,657.8999999910593,1610.2000000029802,NA,1610.2000000029802,FALSE,2,657.8999999910593,1610.2000000029802,2268.0999999940395,581,1,0.8283383803552414,1,0.7170575057722569
wf6f1fe5,correct,3168.79999999702,1022.7000000029802,947.3999999910593,865.4000000059605,865.4000000059605,TRUE,3,1888.1000000089407,947.3999999910593,2835.5,582,1,0.8734190781213733,1,0.5357115495394087
wf6f1fe5,correct,2682.3999999910593,790.7999999970198,740.7000000029802,799.2000000029802,799.2000000029802,TRUE,3,1590,740.7000000029802,2330.7000000029802,584,1,0.5871657253254642,0,-1.6597846838628227
wf6f1fe5,correct,2269.70000000298,649.5,537.4000000059605,814.2000000029802,814.2000000029802,TRUE,3,1463.7000000029802,537.4000000059605,2001.1000000089407,585,1,0.777727691399669,0,-1.6597846838628227
wf6f1fe5,correct,2189.79999999702,597.7000000029802,547.7000000029802,727.7000000029802,727.7000000029802,TRUE,3,1325.4000000059605,547.7000000029802,1873.1000000089407,586,1,0.7478873908202397,1,-0.1587805472608989
wf6f1fe5,correct,2233.699999988079,701.5,534.3999999910593,635.6000000089407,635.6000000089407,TRUE,3,1337.1000000089407,534.3999999910593,1871.5,587,1,0.6059167909895433,1,0.5096929681529611
wf6f1fe5,correct,2461.5,601.4000000059605,717.5999999940395,621.3000000119209,621.3000000119209,TRUE,3,1222.7000000178814,717.5999999940395,1940.300000011921,588,1,0.6217918592423483,0,-1.6597846838628227
wf6f1fe5,correct,2738.699999988079,648.3999999910593,679.1000000089407,165.69999998807907,975,FALSE,4,814.0999999791384,1654.1000000089407,2468.199999988079,589,0,-1.6597846838628227,1,0.6746164656538213
wc362ad1,correct,3348.70000000298,2017.9000000059605,NA,NA,2017.9000000059605,TRUE,1,2017.9000000059605,0,2017.9000000059605,590,1,0.3199888872258683,0,-4.953584146127646
wc362ad1,correct,4076.6000000089407,700.1000000089407,526.7999999970198,2471,2471,TRUE,3,3171.1000000089407,526.7999999970198,3697.9000000059605,591,1,0.0854424698601613,1,0.6821520493687024
wc362ad1,correct,2851.0999999940395,2725.699999988079,NA,NA,2725.699999988079,TRUE,1,2725.699999988079,0,2725.699999988079,592,1,0.8027909349910896,1,-0.02147636818682704
wc362ad1,correct,1817.70000000298,1378.2999999970198,NA,NA,1378.2999999970198,TRUE,1,1378.2999999970198,0,1378.2999999970198,593,1,0.51653820442935094,1,-2.0100312989824367
wc362ad1,correct,1695.4000000059605,1233.5,NA,NA,1233.5,TRUE,1,1233.5,0,1233.5,594,1,0.5928703223439905,1,-0.09328870651106225
wc362ad1,correct,1814.9000000059605,1463.0999999940395,NA,NA,1463.0999999940395,TRUE,1,1463.0999999940395,0,1463.0999999940395,595,1,0.5789255742742702,1,0.2020128875469784
wc362ad1,correct,1510.300000011921,1213.1000000089407,NA,NA,1213.1000000089407,TRUE,1,1213.1000000089407,0,1213.1000000089407,596,1,0.28344865294886407,1,-1.2276234421328758
wc362ad1,correct,1482.4000000059605,1145.4000000059605,NA,NA,1145.4000000059605,TRUE,1,1145.4000000059605,0,1145.4000000059605,597,1,0.5676109854068174,1,-0.42530468890930645
wc362ad1,correct,2122.70000000298,1797.2999999970198,NA,NA,1797.2999999970198,TRUE,1,1797.2999999970198,0,1797.2999999970198,598,1,0.20547672622531934,1,-0.6657876168947682
wc362ad1,correct,2166.8999999910593,1447.2000000029802,NA,NA,1447.2000000029802,TRUE,1,1447.2000000029802,0,1447.2000000029802,599,1,0.5522899711651813,1,0.36149155462698485
wc362ad1,correct,1574.5,1359.2000000029802,NA,NA,1359.2000000029802,TRUE,1,1359.2000000029802,0,1359.2000000029802,600,1,0.9023514677585011,1,0.9052086048759717
wc362ad1,correct,2702.9000000059605,2285.4000000059605,NA,NA,2285.4000000059605,TRUE,1,2285.4000000059605,0,2285.4000000059605,601,1,-0.7651409386965299,1,0.05405159786682931
wc362ad1,correct,2926.70000000298,2786.9000000059605,NA,NA,2786.9000000059605,TRUE,1,2786.9000000059605,0,2786.9000000059605,602,1,0.14746278055218567,1,0.8176545107034996
wc362ad1,correct,2647.20000000298,1890.2999999970198,NA,NA,1890.2999999970198,TRUE,1,1890.2999999970198,0,1890.2999999970198,603,1,-0.012625933872567963,1,0.09327771608285605
wc362ad1,correct,2053.20000000298,1643.3999999910593,NA,NA,1643.3999999910593,TRUE,1,1643.3999999910593,0,1643.3999999910593,604,1,-0.042039644878037026,1,0.3600781798112547
wc362ad1,correct,2490.29999999702,2272.0999999940395,NA,NA,2272.0999999940395,TRUE,1,2272.0999999940395,0,2272.0999999940395,606,1,-0.1277839162407195,1,0.31661018193188795
wc362ad1,correct,1536.1000000089407,1314.6000000089407,NA,NA,1314.6000000089407,TRUE,1,1314.6000000089407,0,1314.6000000089407,607,1,0.15980724706736882,1,-0.21546566411009438
wc362ad1,correct,2442,2037.2999999970198,NA,NA,2037.2999999970198,TRUE,1,2037.2999999970198,0,2037.2999999970198,608,1,0.2473740110094409,1,0.7249981695442606
w6395792,correct,6834.899999976158,514.7999999821186,795.8000000119209,1853.7999999821186,349.7000000178814,TRUE,6,3027.9999999403954,2924.600000053644,5952.5999999940395,609,1,0.2798230218155341,1,0.13670129121478233
w6395792,correct,2280.699999988079,560.2999999821186,801.7000000178814,155.40000000596046,155.40000000596046,TRUE,3,715.6999999880791,801.7000000178814,1517.4000000059605,610,1,0.49965471880813167,1,-1.6978819801094995
w6395792,correct,1974.600000023842,526.1000000238419,385.19999998807907,570,570,TRUE,3,1096.1000000238419,385.19999998807907,1481.300000011921,611,1,0.49971667514887963,1,0.7626678143456036
w6395792,correct,2332.7000000178814,1812.5999999940395,NA,NA,1812.5999999940395,TRUE,1,1812.5999999940395,0,1812.5999999940395,612,1,-0.17485465469448225,1,0.13388370160797594
w6395792,correct,2592.5,519.3000000119209,689.2999999821186,673.1000000238419,673.1000000238419,TRUE,3,1192.4000000357628,689.2999999821186,1881.7000000178814,613,1,0.1557908586661365,1,-1.6298310033223646
w6395792,correct,1752,1221.7000000178814,NA,NA,1221.7000000178814,TRUE,1,1221.7000000178814,0,1221.7000000178814,614,1,0.06745316343987506,1,0.3747379642965921
w6395792,correct,2173.2999999821186,1917.4000000059605,NA,NA,1917.4000000059605,TRUE,1,1917.4000000059605,0,1917.4000000059605,615,1,0.6671632498127762,1,-0.07565828018141996
w6395792,correct,1838.100000023842,1342.800000011921,NA,NA,1342.800000011921,TRUE,1,1342.800000011921,0,1342.800000011921,616,1,0.3301785060781077,1,0.4040039201032989
w6395792,correct,2042.199999988079,1370.5999999940395,NA,NA,1370.5999999940395,TRUE,1,1370.5999999940395,0,1370.5999999940395,617,1,0.5040916827285312,1,0.7322556021415587
w6395792,correct,1281.5999999940395,999,NA,NA,999,TRUE,1,999,0,999,618,1,0.35736144426560523,1,0.24076879504963347
w6395792,correct,1183.9000000059605,991.5,NA,NA,991.5,TRUE,1,991.5,0,991.5,619,1,0.3194729737054875,1,0.3037873280308944
w6395792,correct,1625.0999999940395,1287.0999999940395,NA,NA,1287.0999999940395,TRUE,1,1287.0999999940395,0,1287.0999999940395,620,1,-0.36770226711393905,1,0.3415053437533614
w6395792,correct,2183.5999999940395,1285.4000000059605,NA,NA,1285.4000000059605,TRUE,1,1285.4000000059605,0,1285.4000000059605,621,1,-0.9119153197568812,1,-0.0737160588927495
w6395792,correct,6313.9000000059605,5716.5,NA,NA,5716.5,TRUE,1,5716.5,0,5716.5,622,1,0.39817250942082977,1,-0.23321582553649606
w6395792,correct,1903.7000000178816,1409.6000000238419,NA,NA,1409.6000000238419,TRUE,1,1409.6000000238419,0,1409.6000000238419,623,1,0.2244099016709812,1,-0.2250110902847799
w6395792,correct,1705.300000011921,1364.4000000059605,NA,NA,1364.4000000059605,TRUE,1,1364.4000000059605,0,1364.4000000059605,624,1,0.48659194921236915,1,0.009626918550409336
w6395792,correct,1482.300000011921,1347.5,NA,NA,1347.5,TRUE,1,1347.5,0,1347.5,625,1,0.4356557207171846,1,0.26250794338104516
w6395792,correct,3379.4000000059605,2959.7000000178814,NA,NA,2959.7000000178814,TRUE,1,2959.7000000178814,0,2959.7000000178814,626,0.5,-5.208866337510689,1,0.5481425799152965
w6395792,correct,1629.0999999940395,1442.699999988079,NA,NA,1442.699999988079,TRUE,1,1442.699999988079,0,1442.699999988079,627,1,0.30351671708007655,1,-0.31331653698523776
w33ad6b1,correct,2291,1510.7999999970198,NA,NA,1510.7999999970198,TRUE,1,1510.7999999970198,0,1510.7999999970198,628,1,0.3385860525437321,1,0.3026752905369939
w33ad6b1,correct,3671.79999999702,570.5999999940395,854.3000000119209,1512,1512,TRUE,3,2082.5999999940395,854.3000000119209,2936.9000000059605,629,1,-0.02912633357684688,1,-0.24211103288752667
w33ad6b1,correct,2607.1000000089407,852.6000000089407,641.8999999910593,745.7000000029802,745.7000000029802,TRUE,3,1598.300000011921,641.8999999910593,2240.2000000029802,630,1,0.12059548167916515,1,0.46818148359155554
w33ad6b1,correct,2434.70000000298,1887.7000000029802,NA,NA,1887.7000000029802,TRUE,1,1887.7000000029802,0,1887.7000000029802,631,1,0.17757823105221401,1,0.36285860852762075
w33ad6b1,correct,2579.29999999702,634.5999999940395,641.7000000029802,974.7999999970198,974.7999999970198,TRUE,3,1609.3999999910593,641.7000000029802,2251.0999999940395,633,1,0.4467498963663798,1,0.6684077777052834
w33ad6b1,correct,2945.79999999702,1187.0999999940395,1490.6000000089407,NA,1490.6000000089407,FALSE,2,1187.0999999940395,1490.6000000089407,2677.7000000029802,634,1,-0.761825826513596,1,-0.09588638890807893
w33ad6b1,correct,2747.8999999910593,805.8999999910593,1668.4000000059605,NA,1668.4000000059605,FALSE,2,805.8999999910593,1668.4000000059605,2474.2999999970198,635,0,-5.8166316372424305,1,0.2850049374014172
w33ad6b1,correct,4011.29999999702,780.3999999910593,814.2000000029802,1011,1014,FALSE,4,1791.3999999910593,1828.2000000029802,3619.5999999940395,636,1,-0.4115093758776581,1,0.3913961787563333
w33ad6b1,correct,2320.8999999910593,530.1999999880791,944.5,431.90000000596046,431.90000000596046,TRUE,3,962.0999999940395,944.5,1906.5999999940395,637,1,0.24129986980990137,1,-0.04593774935032656
w33ad6b1,correct,2364.5,749,745.7999999970198,541.3000000119209,541.3000000119209,TRUE,3,1290.300000011921,745.7999999970198,2036.1000000089407,638,1,0.08759439606503369,1,0.11572390225024176
w33ad6b1,correct,3692.099999994039,664,2763.8999999910593,NA,2763.8999999910593,FALSE,2,664,2763.8999999910593,3427.8999999910593,639,1,0.34744345009452837,1,0.5068702460123516
w33ad6b1,correct,2181.8999999910593,555.8999999910593,1317,NA,1317,FALSE,2,555.8999999910593,1317,1872.8999999910593,640,1,-0.09219264992697729,1,-0.18458231669264968
w33ad6b1,correct,2957.300000011921,650.5,1985.2000000029802,NA,1985.2000000029802,FALSE,2,650.5,1985.2000000029802,2635.7000000029802,641,1,0.5147547075744334,1,0.46842784748428967
w33ad6b1,correct,2201.5999999940395,530.9000000059605,1427.7999999970198,NA,1427.7999999970198,FALSE,2,530.9000000059605,1427.7999999970198,1958.7000000029802,642,1,0.6713336887369111,1,-0.13261578915265645
w33ad6b1,correct,4159.20000000298,570,626.9000000059605,482.5,1132.7999999970198,FALSE,4,1052.5,1759.7000000029802,2812.2000000029802,644,1,-0.45559960078448236,1,0.013111878036955304
