wid,response_type,raw_rt,first_pres_time,second_pres_time,third_pres_time,last_pres_time,choose_first,n_pres,total_first,total_second,rt,trial_id,pretest_accuracy_first,strength_first,pretest_accuracy_second,strength_second
wf1e76ec,correct,7738.599999904633,741.2999999523163,559.5,2,2699.100000143051,FALSE,8,1443.8999998569489,4233.000000238419,5676.900000095367,1,0,-1.677227982407885,1,1.0017430596815722
wf1e76ec,correct,5647.600000143051,1735.9000000953674,735.9000000953674,264,468.2999999523163,TRUE,5,2468.2000000476837,1169.2000000476837,3637.4000000953674,3,1,0.9948647790073333,1,0.6663790299385497
wf1e76ec,correct,2267.900000095367,908.9000000953674,278.2999999523163,543.6000001430511,543.6000001430511,TRUE,3,1452.5000002384186,278.2999999523163,1730.8000001907349,4,0.5,-0.3775096087955085,0.5,-0.7688944409356441
wf1e76ec,correct,3034.7000000476837,600.5,308.2999999523163,1325.7999999523163,1325.7999999523163,TRUE,3,1926.2999999523163,308.2999999523163,2234.5999999046326,5,1,0.9755013858952893,1,0.9516083730950501
wf1e76ec,correct,2005.7000000476835,319.7999999523163,468.2000000476837,738.4000000953674,738.4000000953674,TRUE,3,1058.2000000476837,468.2000000476837,1526.4000000953674,6,1,0.8361026940009848,1,0.308903588143068
wf1e76ec,correct,1678.9000000953674,160.20000004768372,470.7000000476837,561.2000000476837,561.2000000476837,TRUE,3,721.4000000953674,470.7000000476837,1192.1000001430511,7,1,1.1037280974008812,1,0.11783026910982906
wf1e76ec,correct,3130.800000190735,324.5,746.3000001907349,1453.7999999523163,1453.7999999523163,TRUE,3,1778.2999999523163,746.3000001907349,2524.600000143051,8,1,0.2963265001534087,0.5,-0.6188493100804814
wf1e76ec,correct,1445.1000001430511,117.40000009536743,337.59999990463257,590.7999999523163,590.7999999523163,TRUE,3,708.2000000476837,337.59999990463257,1045.7999999523163,10,1,0.8381357872827375,0.5,-0.44468103697024197
wf1e76ec,correct,1639.2999999523165,78.29999995231628,480.10000014305115,655,655,TRUE,3,733.2999999523163,480.10000014305115,1213.4000000953674,11,1,1.1347849565233123,0.5,-0.3514910414538027
wf1e76ec,correct,1799.8999998569489,199,276.39999985694885,258.7000000476837,625,FALSE,4,457.7000000476837,901.3999998569489,1359.0999999046326,12,0.5,-0.9753281271351283,1,0.9975893988485872
wf1e76ec,correct,1475,137.29999995231628,289.2999999523163,595.7000000476837,595.7000000476837,TRUE,3,733,289.2999999523163,1022.2999999523163,13,1,0.7983190230910012,1,0.2308465758566577
wf1e76ec,correct,1858.8999998569489,12.799999952316284,314.09999990463257,233,738.9000000953674,FALSE,4,245.79999995231628,1053,1298.7999999523163,14,1,0.7870888808113482,0.5,-0.4458865434117165
wf1e76ec,correct,1585.1999998092651,53.299999952316284,382.09999990463257,689.7999999523163,689.7999999523163,TRUE,3,743.0999999046326,382.09999990463257,1125.1999998092651,15,1,0.8277531917005856,1,0.45621785903504575
wf1e76ec,correct,1361.5999999046326,175.59999990463257,334.10000014305115,438,438,TRUE,3,613.5999999046326,334.10000014305115,947.7000000476837,16,1,0.9140667644694551,1,-0.10269460762819488
wf1e76ec,correct,1574.6000001430511,263.5,948.7000000476837,NA,948.7000000476837,FALSE,2,263.5,948.7000000476837,1212.2000000476837,17,0.5,-0.4770778022118912,1,0.9526579138488972
wf1e76ec,correct,1572.7000000476835,280.59999990463257,870,NA,870,FALSE,2,280.59999990463257,870,1150.5999999046326,18,0,-1.677227982407885,1,0.7510318056752049
wf1e76ec,correct,1619.1000001430511,113.60000014305115,449.09999990463257,604.2999999523163,604.2999999523163,TRUE,3,717.9000000953674,449.09999990463257,1167,19,1,0.5429547774853221,1,0.9737299462680461
w1e27c75,correct,2965.199999988079,9.599999994039536,341,1835.4000000059605,1835.4000000059605,TRUE,3,1845,341,2186,20,1,0.45857264744483894,1,0.47103507525768223
w1e27c75,correct,3425.5999999940395,2887.7999999821186,NA,NA,2887.7999999821186,TRUE,1,2887.7999999821186,0,2887.7999999821186,21,1,-0.40889186676920247,1,0.23694650920835758
w1e27c75,correct,2157.600000023842,1612,NA,NA,1612,TRUE,1,1612,0,1612,22,1,0.0849269195964861,0,-3.957819854441868
w1e27c75,correct,1658.9000000059605,1211.800000011921,NA,NA,1211.800000011921,TRUE,1,1211.800000011921,0,1211.800000011921,23,1,0.14040940702690255,1,0.4164228264752432
w1e27c75,correct,3742.900000005961,1063.7000000178814,1762.699999988079,316.59999999403954,316.59999999403954,TRUE,3,1380.300000011921,1762.699999988079,3143,24,1,0.4260639763348823,1,-0.09879311003239208
w1e27c75,correct,1614.7000000178814,1111.9000000059605,NA,NA,1111.9000000059605,TRUE,1,1111.9000000059605,0,1111.9000000059605,25,1,0.4099279715627529,1,0.5307428016862571
w1e27c75,correct,1419,1018.6999999880791,NA,NA,1018.6999999880791,TRUE,1,1018.6999999880791,0,1018.6999999880791,26,1,0.687713993724648,1,-1.0025269311277838
w1e27c75,correct,2943,1321.300000011921,NA,NA,1321.300000011921,TRUE,1,1321.300000011921,0,1321.300000011921,27,1,-0.4723201821152741,1,0.4181802467256949
w1e27c75,correct,3443.4000000059605,1390.2999999821186,1579.2000000178814,NA,1579.2000000178814,FALSE,2,1390.2999999821186,1579.2000000178814,2969.5,28,1,0.3667949812116859,1,0.5198540322996561
w1e27c75,correct,2728.4000000059605,693.7999999821186,1733.300000011921,NA,1733.300000011921,FALSE,2,693.7999999821186,1733.300000011921,2427.0999999940395,29,1,0.2669440036641665,1,-0.2138338321897837
w1e27c75,correct,3622.699999988079,990.5,826.7999999821186,729.6000000238419,729.6000000238419,TRUE,3,1720.1000000238419,826.7999999821186,2546.9000000059605,30,1,0.0678062920960903,1,0.3632689141683904
w1e27c75,correct,1594.5999999940395,1377.5999999940395,NA,NA,1377.5999999940395,TRUE,1,1377.5999999940395,0,1377.5999999940395,32,1,0.6850009182658805,1,0.6573220070561442
w1e27c75,correct,3915.900000005961,1293.0999999940395,906.8000000119209,720.8000000119209,720.8000000119209,TRUE,3,2013.9000000059605,906.8000000119209,2920.7000000178814,33,1,0.574382887564496,1,0.20369919767928366
w1e27c75,correct,2735.800000011921,768.0999999940395,1312.6000000238419,NA,1312.6000000238419,FALSE,2,768.0999999940395,1312.6000000238419,2080.7000000178814,34,1,-0.935399484068218,1,0.5879742209294551
w1e27c75,correct,2073.5,1313,NA,NA,1313,TRUE,1,1313,0,1313,35,1,0.3469347047483257,1,0.49006539975163044
w1e27c75,correct,1978.9000000059605,1385.6000000238419,NA,NA,1385.6000000238419,TRUE,1,1385.6000000238419,0,1385.6000000238419,36,1,0.007959806418324281,1,0.4957896782991988
w1e27c75,correct,1923.5999999940395,1507.4000000059605,NA,NA,1507.4000000059605,TRUE,1,1507.4000000059605,0,1507.4000000059605,37,1,0.3154786973475391,1,-0.25297368143630083
w1e27c75,correct,1386.9000000059605,987.7000000178814,NA,NA,987.7000000178814,TRUE,1,987.7000000178814,0,987.7000000178814,38,1,0.176468126424316,1,0.3601574647528843
w8b27b76,correct,4634.5,759,3011.9000000059605,NA,3011.9000000059605,FALSE,2,759,3011.9000000059605,3770.9000000059605,41,1,0.34288997301073204,1,0.46539988795916565
w8b27b76,correct,4800.299999982119,657.5999999940395,713.1999999880791,2170.800000011921,2170.800000011921,TRUE,3,2828.4000000059605,713.1999999880791,3541.5999999940395,44,1,0.8397413841957904,0.5,-0.0290968749205619
w8b27b76,correct,3531.800000011921,492.90000000596046,1666.699999988079,NA,1666.699999988079,FALSE,2,492.90000000596046,1666.699999988079,2159.5999999940395,45,0,-1.1582908654913826,1,0.5484530815640304
w8b27b76,correct,2738.5,453.09999999403954,1403.2000000178814,NA,1403.2000000178814,FALSE,2,453.09999999403954,1403.2000000178814,1856.300000011921,46,0,-1.1582908654913826,1,0.879954680852491
w8b27b76,correct,2623.5,577.6999999880791,1352.300000011921,NA,1352.300000011921,FALSE,2,577.6999999880791,1352.300000011921,1930,47,1,0.40023012017324444,1,0.9208271256026238
w8b27b76,correct,2296.399999976158,484.09999999403954,593.2999999821186,573.8000000119209,573.8000000119209,TRUE,3,1057.9000000059605,593.2999999821186,1651.199999988079,48,1,1.3798463359912583,0,-1.1582908654913826
w8b27b76,correct,2844.199999988079,528,1766.199999988079,NA,1766.199999988079,FALSE,2,528,1766.199999988079,2294.199999988079,49,0,-1.1582908654913826,1,0.8420606513483287
w8b27b76,correct,2824.699999988079,534.8000000119209,1675.8999999761581,NA,1675.8999999761581,FALSE,2,534.8000000119209,1675.8999999761581,2210.699999988079,50,0.5,-0.011704620943192051,1,0.9321190349563857
w8b27b76,correct,2099.300000011921,481.59999999403954,429.7000000178814,538.7999999821186,538.7999999821186,TRUE,3,1020.3999999761581,429.7000000178814,1450.0999999940395,52,1,1.4406126937897061,1,0.4337680552188789
w8b27b76,correct,2350.800000011921,508,1362.4000000059605,NA,1362.4000000059605,FALSE,2,508,1362.4000000059605,1870.4000000059605,53,0.5,-0.6441629644758206,1,0.8010178511048549
w8b27b76,correct,2191.4000000059605,449.90000000596046,1262.2999999821186,NA,1262.2999999821186,FALSE,2,449.90000000596046,1262.2999999821186,1712.199999988079,54,0,-1.1582908654913826,1,1.6634402077137704
w8b27b76,correct,3841,522.4000000059605,2799.699999988079,NA,2799.699999988079,FALSE,2,522.4000000059605,2799.699999988079,3322.0999999940395,56,0,-1.1582908654913826,1,0.22296136443864636
w8b27b76,correct,2054.5999999940395,393.7999999821186,1257.0999999940395,NA,1257.0999999940395,FALSE,2,393.7999999821186,1257.0999999940395,1650.8999999761581,57,1,0.24109092002681926,1,1.2097027730169856
wbc79f63,correct,6120.299999998882,718.2999999988824,4311.700000001118,NA,4311.700000001118,FALSE,2,718.2999999988824,4311.700000001118,5030,58,0,-0.9531689575037563,1,0.8497168198277427
wbc79f63,correct,4260.199999999255,3100.5999999996275,NA,NA,3100.5999999996275,TRUE,1,3100.5999999996275,0,3100.5999999996275,59,1,1.1209181928298382,1,1.043060627408835
wbc79f63,correct,4421.800000000745,1119,1922.7000000011176,NA,1922.7000000011176,FALSE,2,1119,1922.7000000011176,3041.7000000011176,60,0,-0.9531689575037563,1,0.8531287483495292
wbc79f63,correct,5543.699999999255,1226.7999999988824,906.5,1786.800000000745,1786.800000000745,TRUE,3,3013.5999999996275,906.5,3920.0999999996275,61,1,0.561040491122411,0,-0.9531689575037563
wbc79f63,correct,4310.9000000003725,692.5999999996275,2124.5,NA,2124.5,FALSE,2,692.5999999996275,2124.5,2817.0999999996275,63,0,-0.9531689575037563,1,0.7250761073997892
wbc79f63,correct,3281,847.6999999992549,1699,NA,1699,FALSE,2,847.6999999992549,1699,2546.699999999255,64,0,-0.9531689575037563,1,1.0633968107939293
wbc79f63,correct,2768.800000000745,708.9000000003725,1706,NA,1706,FALSE,2,708.9000000003725,1706,2414.9000000003725,65,0,-0.9531689575037563,1,0.8708060046456682
wbc79f63,correct,4413.9000000003725,1951.2000000011176,NA,NA,1951.2000000011176,TRUE,1,1951.2000000011176,0,1951.2000000011176,66,1,1.0383291698830632,1,0.9749006092315905
wbc79f63,correct,2956.4000000003725,1866.800000000745,NA,NA,1866.800000000745,TRUE,1,1866.800000000745,0,1866.800000000745,67,1,1.1654225158364622,1,0.8530885845930094
wbc79f63,correct,3556.5999999996275,781.5,1929.5999999996275,NA,1929.5999999996275,FALSE,2,781.5,1929.5999999996275,2711.0999999996275,68,0,-0.9531689575037563,1,0.9680466683385797
wbc79f63,correct,3170.699999999255,1815.199999999255,NA,NA,1815.199999999255,TRUE,1,1815.199999999255,0,1815.199999999255,70,1,1.0598159196058863,0,-0.9531689575037563
wbc79f63,correct,5099.0999999996275,1746.5,573.2000000011176,1868.199999999255,1868.199999999255,TRUE,3,3614.699999999255,573.2000000011176,4187.9000000003725,73,0.5,-0.33940047352301644,0,-0.9531689575037563
wbc79f63,correct,3582,836.2000000011176,537.8999999985099,1155.4000000003725,1155.4000000003725,TRUE,3,1991.6000000014901,537.8999999985099,2529.5,75,1,0.914958039396378,0,-0.9531689575037563
wbc79f63,correct,2571.7999999988824,1767.0999999996275,NA,NA,1767.0999999996275,TRUE,1,1767.0999999996275,0,1767.0999999996275,76,1,1.1788545436574227,1,1.4814736443282512
w68042bc,correct,5031.800000011921,654.8000000119209,420.69999998807907,352.40000000596046,2232.199999988079,TRUE,5,3239.4000000059605,807.0999999940395,4046.5,78,1,1.319277514783828,1,0.9889205432650381
w68042bc,correct,4756.600000023842,645.1000000238419,340.2999999821186,336.30000001192093,2531.5999999940395,FALSE,4,981.4000000357628,2871.899999976158,3853.300000011921,79,1,0.8330984704028606,1,1.3162138204156528
w68042bc,correct,3794.800000011921,610.9000000059605,499.59999999403954,365.80000001192093,1245.9000000059605,TRUE,4,976.7000000178814,1745.5,2722.2000000178814,80,1,1.079690863774856,1,1.021049932524403
w68042bc,correct,3717.7000000178814,684,331.30000001192093,303.90000000596046,1188.5999999940395,TRUE,4,987.9000000059605,1519.9000000059605,2507.800000011921,82,1,1.1288401844774623,0,-0.9659893092026227
w68042bc,correct,3014.5999999940395,624.5,329.30000001192093,323.2999999821186,1004.0999999940395,TRUE,4,947.7999999821186,1333.4000000059605,2281.199999988079,85,1,0.9365006631395028,0,-0.9659893092026227
w68042bc,correct,3917.099999994039,566.2999999821186,1554.4000000059605,361.40000000596046,1083.5999999940395,TRUE,4,927.6999999880791,2638,3565.699999988079,86,0.5,-0.24455638222229875,0,-0.9659893092026227
w68042bc,correct,3091.399999976158,670.5999999940395,374.5,330.40000000596046,1067.8999999761581,FALSE,4,1001,1442.3999999761581,2443.399999976158,88,1,1.0454569441743073,1,1.3258354769466087
w68042bc,correct,3000.100000023842,725,360.40000000596046,290.2000000178814,895.0999999940395,TRUE,4,1015.2000000178814,1255.5,2270.7000000178814,89,1,1.2287854625609438,0.5,-0.2874533810063584
w68042bc,correct,2674,570.7999999821186,332.2000000178814,306,752.1000000238419,TRUE,5,1628.9000000059605,753.5,2382.4000000059605,90,1,1.24227520204428,1,1.0660246564963092
w68042bc,correct,2665.7000000178814,459.7000000178814,330,315.5,787.2999999821186,TRUE,4,775.2000000178814,1117.2999999821186,1892.5,94,1,1.172445299225907,0,-0.9659893092026227
we9a3929,correct,3266.099999904633,677.7999999523163,258.2999999523163,1152.7000000476837,1152.7000000476837,TRUE,3,1830.5,258.2999999523163,2088.7999999523163,97,1,1.3861343377036623,1,1.2266316565906896
we9a3929,correct,2288.2999999523163,508.40000009536743,1327,NA,1327,FALSE,2,508.40000009536743,1327,1835.4000000953674,98,0,-0.8028321438451254,1,1.341707855261902
we9a3929,correct,2424.300000190735,623.5,302.60000014305115,747.0999999046326,747.0999999046326,TRUE,3,1370.5999999046326,302.60000014305115,1673.2000000476837,99,1,1.1180626596277636,0,-0.8028321438451254
we9a3929,correct,2121.699999809265,441.19999980926514,1154.2000000476837,NA,1154.2000000476837,FALSE,2,441.19999980926514,1154.2000000476837,1595.3999998569489,101,0,-0.8028321438451254,1,1.139631910215821
we9a3929,correct,2041.2999999523165,480.09999990463257,1044.5999999046326,NA,1044.5999999046326,FALSE,2,480.09999990463257,1044.5999999046326,1524.6999998092651,103,0,-0.8028321438451254,1,1.2756149211811076
we9a3929,correct,1728.3999998569489,499.7999999523163,780.4000000953674,NA,780.4000000953674,FALSE,2,499.7999999523163,780.4000000953674,1280.2000000476837,106,0,-0.8028321438451254,1,1.2974607043076354
we9a3929,correct,2151.400000095367,531.2000000476837,188.70000004768372,571.5,571.5,TRUE,3,1102.7000000476837,188.70000004768372,1291.4000000953674,108,1,1.3089224600209386,0,-0.8028321438451254
we9a3929,correct,2243.600000143051,669.4000000953674,501.90000009536743,532.6999998092651,532.6999998092651,TRUE,3,1202.0999999046326,501.90000009536743,1704,109,1,0.9171156232954596,0,-0.8028321438451254
we9a3929,correct,3622.700000047684,577.4000000953674,291.2999999523163,381.7999999523163,381.7999999523163,TRUE,3,959.2000000476837,291.2999999523163,1250.5,110,1,1.222504151521686,1,0.8988625578198345
we9a3929,correct,1491,451.30000019073486,371,326.69999980926514,326.69999980926514,TRUE,3,778,371,1149,111,1,1.3309639061147525,0,-0.8028321438451254
we9a3929,correct,1352.9000000953674,883.6000001430511,NA,NA,883.6000001430511,TRUE,1,883.6000001430511,0,883.6000001430511,112,1,1.269753985735395,1,1.278411036443831
w3c30b10,correct,8940,1036,5150,NA,5150,TRUE,2,1036,5150,6186,115,1,0.2392505569507229,1,-0.1356749755534879
w3c30b10,correct,4080,976,642,1456,1456,TRUE,3,2432,642,3074,116,1,0.647288715388817,1,0.1764055672406319
w3c30b10,correct,4769,871,1362,NA,1362,FALSE,2,871,1362,2233,117,0,-2.067546027896344,1,0.7074254260398058
w3c30b10,correct,2715,699,488,805,805,TRUE,3,1504,488,1992,118,1,0.811698634389151,1,0.04887645992363219
w3c30b10,correct,3593,865,1009,845,845,TRUE,3,1710,1009,2719,119,1,0.47753687471538403,0,-2.067546027896344
w3c30b10,correct,5137,2894,642,915,915,TRUE,3,3809,642,4451,121,1,0.5784123100579402,1,0.3200537654300172
w3c30b10,correct,3788,941,2023,NA,2023,FALSE,2,941,2023,2964,122,1,-0.25104414867492353,1,0.7215769378943342
w3c30b10,correct,3746,899,2063,NA,2063,FALSE,2,899,2063,2962,123,1,0.4231446249574258,1,0.6840999199344466
w3c30b10,correct,3552,728,420,1478,1478,TRUE,3,2206,420,2626,124,1,0.5314617722859241,1,0.4290358551283895
w3c30b10,correct,3311,924,1480,NA,1480,FALSE,2,924,1480,2404,125,0,-2.067546027896344,1,0.6636965970477144
w3c30b10,correct,3743,722,430,759,895,FALSE,4,1481,1325,2806,126,1,0.5912081710472842,1,0.5653627911050706
w3c30b10,correct,3099,1147,494,664,664,TRUE,3,1811,494,2305,127,1,0.5015630782780933,0.5,-1.381279944493489
w3c30b10,correct,2992,774,1377,NA,1377,FALSE,2,774,1377,2151,128,0,-2.067546027896344,1,0.47083588597183157
w3c30b10,correct,3855,1243,1743,NA,1743,FALSE,2,1243,1743,2986,129,1,0.7208883267454373,1,0.5750780112970666
w3c30b10,correct,3675,725,666,426,1026,FALSE,4,1151,1692,2843,130,1,0.7026941243971437,1,0.3904461260733277
w3c30b10,correct,2916,645,1544,NA,1544,FALSE,2,645,1544,2189,131,1,-0.03661292709779014,1,0.7398023639229431
w3c30b10,correct,3019,763,1475,NA,1475,FALSE,2,763,1475,2238,132,1,0.46819501480647674,1,0.6409337401106254
w3c30b10,correct,3671,796,889,1216,1216,TRUE,3,2012,889,2901,133,1,0.5018133829467601,0,-2.067546027896344
w86d65f2,correct,5032,868,3643,NA,3643,FALSE,2,868,3643,4511,134,0,-0.8296134116998346,1,0.4599748655754842
w86d65f2,correct,4731,1258,2381,NA,2381,TRUE,2,1258,2381,3639,138,1,0.9013087036848039,1,1.3963298712163408
w86d65f2,correct,3704,524,2231,NA,2231,FALSE,2,524,2231,2755,139,0,-0.8296134116998346,1,0.8705256543687798
w86d65f2,correct,3376,497,1685,NA,1685,FALSE,2,497,1685,2182,143,0,-0.8296134116998346,1,0.7417223559903598
w86d65f2,correct,3163,530,1722,NA,1722,FALSE,2,530,1722,2252,145,1,1.171601950184419,1,1.4470911705498193
w86d65f2,correct,2803,507,1589,NA,1589,FALSE,2,507,1589,2096,147,0,-0.8296134116998346,1,1.1034176784603442
w86d65f2,correct,2820,547,954,814,814,TRUE,3,1361,954,2315,148,1,1.4969573459013799,1,1.2337842991814227
w86d65f2,correct,2752,533,1596,NA,1596,FALSE,2,533,1596,2129,149,0,-0.8296134116998346,1,0.6151871596467006
w86d65f2,correct,2475,578,533,915,915,TRUE,3,1493,533,2026,150,1,1.4932943466951927,0,-0.8296134116998346
w86d65f2,correct,2644,679,453,756,756,TRUE,3,1435,453,1888,151,1,1.1076252321643878,0,-0.8296134116998346
w86d65f2,correct,3025,556,907,991,991,TRUE,3,1547,907,2454,152,1,1.589443988503785,1,1.0249406746639915
w2f58008,correct,2796.699999999255,2243.5,NA,NA,2243.5,TRUE,1,2243.5,0,2243.5,154,1,0.711082723835547,1,-0.9591946024297255
w2f58008,correct,4436.400000002235,3861.60000000149,NA,NA,3861.60000000149,TRUE,1,3861.60000000149,0,3861.60000000149,155,1,0.32712276888118946,1,0.937984238682634
w2f58008,correct,1450.4000000022352,1132.5,NA,NA,1132.5,TRUE,1,1132.5,0,1132.5,156,1,0.633302791165342,1,0.7634105821709566
w2f58008,correct,1514.800000000745,1165.8999999985099,NA,NA,1165.8999999985099,TRUE,1,1165.8999999985099,0,1165.8999999985099,159,1,0.6833556714496755,1,0.17801135457880504
w2f58008,correct,2196.10000000149,1702,NA,NA,1702,TRUE,1,1702,0,1702,160,1,0.14749684468892313,1,0.867049997234147
w2f58008,correct,2002.5,1775.5,NA,NA,1775.5,TRUE,1,1775.5,0,1775.5,161,1,-0.6643977022582304,1,0.45818671950820783
w2f58008,correct,1306.199999999255,937.6000000014901,NA,NA,937.6000000014901,TRUE,1,937.6000000014901,0,937.6000000014901,162,1,0.7452553716571395,1,-0.5701526705708221
w2f58008,correct,1916.89999999851,1416.699999999255,NA,NA,1416.699999999255,TRUE,1,1416.699999999255,0,1416.699999999255,163,1,0.38864343501236487,1,0.5282485060804883
w2f58008,correct,1568.699999999255,1188.199999999255,NA,NA,1188.199999999255,TRUE,1,1188.199999999255,0,1188.199999999255,164,1,0.49998930976811135,1,-0.33047486689452366
w2f58008,correct,1406.7999999970198,1052.199999999255,NA,NA,1052.199999999255,TRUE,1,1052.199999999255,0,1052.199999999255,166,1,0.5067884347994448,1,-1.1759729589750938
w2f58008,correct,1481.0999999977648,1198,NA,NA,1198,TRUE,1,1198,0,1198,168,1,0.2882847509788779,1,0.6001092529565526
w2f58008,correct,1259.5999999977648,952.3999999985099,NA,NA,952.3999999985099,TRUE,1,952.3999999985099,0,952.3999999985099,169,1,0.7763644370978785,1,0.7145531725526201
w2f58008,correct,1445.199999999255,1078.8999999985099,NA,NA,1078.8999999985099,TRUE,1,1078.8999999985099,0,1078.8999999985099,170,1,0.53163446100267,1,0.7152597151699319
w2f58008,correct,1138.4000000022352,795.6000000014901,NA,NA,795.6000000014901,TRUE,1,795.6000000014901,0,795.6000000014901,171,1,0.5072033045410429,1,0.8680563438582575
wcc762ef,correct,2941.800000000745,704.6999999992549,1755.4000000022352,NA,1755.4000000022352,FALSE,2,704.6999999992549,1755.4000000022352,2460.10000000149,172,1,-0.08476194973823768,1,0.35463352281665755
wcc762ef,correct,2975.60000000149,702.3000000007451,1801.300000000745,NA,1801.300000000745,FALSE,2,702.3000000007451,1801.300000000745,2503.60000000149,173,1,0.022888377436800177,1,0.5995853750694767
wcc762ef,correct,2721,921.5,1427.3999999985099,NA,1427.3999999985099,FALSE,2,921.5,1427.3999999985099,2348.89999999851,174,1,0.5127483456693052,1,0.6949978221579084
wcc762ef,correct,2833.39999999851,662,541.3999999985099,1137.7000000029802,1137.7000000029802,TRUE,3,1799.7000000029802,541.3999999985099,2341.10000000149,175,1,0.7941124276850217,1,0.4671398064245047
wcc762ef,correct,3297.5,552.2999999970198,608,1744.1000000014901,1744.1000000014901,TRUE,3,2296.39999999851,608,2904.39999999851,176,1,0.5017009275998239,1,0.30793715809444544
wcc762ef,correct,4417.5,594.8999999985099,808.9000000022352,394.3999999985099,2102.699999999255,FALSE,4,989.2999999970198,2911.60000000149,3900.89999999851,177,1,0.5987005123646708,1,0.7388262870382233
wcc762ef,correct,3183,1079.300000000745,449.69999999925494,965.5,965.5,TRUE,3,2044.800000000745,449.69999999925494,2494.5,178,1,0.6920541289653245,1,0.7653390422790037
wcc762ef,correct,2530.300000000745,539,439.5,629.2000000029802,527.5,FALSE,4,1168.2000000029802,967,2135.2000000029802,179,1,0.7299512374202222,1,0.6958351241453912
wcc762ef,correct,2293.5,784.5,477.20000000298023,570.8999999985099,570.8999999985099,TRUE,3,1355.3999999985099,477.20000000298023,1832.6000000014901,180,1,0.7546309546650213,1,0.09646472768786915
wcc762ef,correct,1810.10000000149,537,328,573.9000000022352,573.9000000022352,TRUE,3,1110.9000000022352,328,1438.9000000022352,181,1,0.6740115199084685,1,0.438941271947018
wcc762ef,correct,2349.39999999851,784.1000000014901,676.0999999977648,563.4000000022352,563.4000000022352,TRUE,3,1347.5000000037253,676.0999999977648,2023.6000000014901,183,1,0.6462548806539622,1,0.8377095425298079
wcc762ef,correct,2071.800000000745,629.0999999977648,1080.6000000014901,NA,1080.6000000014901,FALSE,2,629.0999999977648,1080.6000000014901,1709.699999999255,184,0,-1.8571221068208255,1,0.7259654221424376
wcc762ef,correct,5299.199999999255,530.8999999985099,842.1000000014901,3332.599999997765,3332.599999997765,TRUE,3,3863.4999999962747,842.1000000014901,4705.599999997765,185,1,-0.18187172031150106,0,-1.8571221068208255
wcc762ef,correct,1934.199999999255,561.3999999985099,977,NA,977,FALSE,2,561.3999999985099,977,1538.3999999985099,186,0,-1.8571221068208255,1,0.7404530388487891
wcc762ef,correct,4338,310.5,2446.39999999851,1210,1210,TRUE,3,1520.5,2446.39999999851,3966.89999999851,187,1,0.7147204898936504,0.5,-1.5842019939802086
wcc762ef,correct,2186.300000000745,531.5,741.8000000007451,530,530,TRUE,3,1061.5,741.8000000007451,1803.300000000745,188,1,0.6463648868692538,1,-0.45395862396547854
wcc762ef,correct,1800.0999999977648,405.29999999701977,414.70000000298023,553.0999999977648,553.0999999977648,TRUE,3,958.3999999947846,414.70000000298023,1373.0999999977648,189,1,0.8367318147781115,0.5,-1.3102821457370903
wcc762ef,correct,2375.89999999851,980.1000000014901,360.3999999985099,607,607,TRUE,3,1587.1000000014901,360.3999999985099,1947.5,190,1,0.6997871400840223,0,-1.8571221068208255
we2b99fe,correct,4555.699999999255,736.1000000014901,710.5,356.30000000074506,380.6000000014901,TRUE,5,1473.0000000037253,2397.599999997765,3870.60000000149,191,1,0.6175208003792624,1,0.6843779887742797
we2b99fe,correct,3117.400000002235,544.3000000007451,851,1332.300000000745,1332.300000000745,TRUE,3,1876.6000000014901,851,2727.60000000149,192,1,-1.4840507103047647,1,0.36342123333604953
we2b99fe,correct,1820.60000000149,461.70000000298023,375.8999999985099,571.6999999992549,571.6999999992549,TRUE,3,1033.4000000022352,375.8999999985099,1409.300000000745,193,1,0.7045829728222939,1,0.18952799427818467
we2b99fe,correct,2696.20000000298,1530.2000000029802,NA,NA,1530.2000000029802,TRUE,1,1530.2000000029802,0,1530.2000000029802,194,1,-0.3305184803275832,1,0.49880224483775043
we2b99fe,correct,3501.699999999255,534.6999999992549,366.5999999977648,862.4000000022352,862.4000000022352,TRUE,3,1397.1000000014901,366.5999999977648,1763.699999999255,196,1,0.27372513239943363,1,0.5854221882080833
we2b99fe,correct,6980.70000000298,599.5,1149.4000000022352,2150.300000000745,1789.1000000014901,TRUE,5,4538.900000002235,1677.300000000745,6216.20000000298,198,1,0.7277810693023002,1,0.5189896431015173
we2b99fe,correct,3015.300000000745,475,1457.300000000745,NA,1457.300000000745,TRUE,2,475,1457.300000000745,1932.300000000745,199,1,0.6696433705994925,1,0.3277215930638234
we2b99fe,correct,3316.099999997765,549.6999999992549,887.5,887.8999999985099,887.8999999985099,TRUE,3,1437.5999999977648,887.5,2325.099999997765,200,1,0.36781183798185135,1,0.08512049165350782
we2b99fe,correct,3923.800000000745,638.3999999985099,830.8000000007451,1106.199999999255,1106.199999999255,TRUE,3,1744.5999999977648,830.8000000007451,2575.39999999851,201,1,-2.007462573232338,1,0.6626972276314219
we2b99fe,correct,2224.900000002235,412.5,961.3000000007451,NA,961.3000000007451,TRUE,2,412.5,961.3000000007451,1373.800000000745,202,1,0.3838971473068664,1,0.35154320007292805
we2b99fe,correct,4589.900000002235,476.1000000014901,993.5,1225.699999999255,1225.699999999255,TRUE,3,1701.800000000745,993.5,2695.300000000745,204,1,0.28876732792064647,1,0.4488184799364315
we2b99fe,correct,2636.60000000149,702.2000000029802,1028.199999999255,NA,1028.199999999255,TRUE,2,702.2000000029802,1028.199999999255,1730.4000000022352,205,1,0.11391222075700054,1,0.6278731473126243
we2b99fe,correct,2612.099999997765,544.5,1142.300000000745,NA,1142.300000000745,TRUE,2,544.5,1142.300000000745,1686.800000000745,206,1,-0.7327142230735941,1,0.73761720428447
we2b99fe,correct,2520.699999999255,557.5,1095.3999999985099,NA,1095.3999999985099,TRUE,2,557.5,1095.3999999985099,1652.8999999985099,207,1,0.0937652505674155,1,-1.5939406531098719
we2b99fe,correct,3759.800000000745,466.19999999925494,947.6000000014901,NA,947.6000000014901,TRUE,2,466.19999999925494,947.6000000014901,1413.800000000745,208,1,0.35598635508214915,1,-0.13269935018939474
we2b99fe,correct,3256.5,871.0999999977648,1690.6000000014901,NA,1690.6000000014901,TRUE,2,871.0999999977648,1690.6000000014901,2561.699999999255,209,1,0.4034114700827355,1,0.39982028348199566
we2750fa,correct,5578.70000000298,1106.6000000014901,799.8000000044703,2502.0999999940395,2502.0999999940395,TRUE,3,3608.6999999955297,799.8000000044703,4408.5,210,1,0.7513950124979323,1,0.7267972020643498
we2750fa,correct,4490.39999999851,1165.3999999985099,573.1000000014901,1640.5999999940395,1640.5999999940395,TRUE,3,2805.9999999925494,573.1000000014901,3379.0999999940395,211,1,0.6120231320648526,1,0.6285313470244703
we2750fa,correct,3999.29999999702,2535.0999999940395,NA,NA,2535.0999999940395,TRUE,1,2535.0999999940395,0,2535.0999999940395,212,1,0.5933686488441402,1,0.6762796510978636
we2750fa,correct,4003,799.5,2316.7000000029802,NA,2316.7000000029802,FALSE,2,799.5,2316.7000000029802,3116.2000000029802,213,0,-1.5908226733533057,1,0.31985276010813474
we2750fa,correct,2371.39999999851,1656.2999999970198,NA,NA,1656.2999999970198,TRUE,1,1656.2999999970198,0,1656.2999999970198,214,1,0.7300040627333951,1,0.5441905870333426
we2750fa,correct,2463.79999999702,1775.6999999955297,NA,NA,1775.6999999955297,TRUE,1,1775.6999999955297,0,1775.6999999955297,217,1,0.8278263428738588,0,-1.5908226733533057
we2750fa,correct,3701.599999994039,821.1999999955297,1972.3999999985099,NA,1972.3999999985099,FALSE,2,821.1999999955297,1972.3999999985099,2793.5999999940395,219,1,0.5896609112808726,1,0.5301059570437269
we2750fa,correct,3922.89999999851,893.2999999970198,519.8999999985099,585.3000000044703,1093.5999999940395,FALSE,4,1478.6000000014901,1613.4999999925494,3092.0999999940395,220,1,0.5100280254912168,1,0.6466908038294874
we2750fa,correct,4560,648.2999999970198,1988.8000000044703,NA,1988.8000000044703,FALSE,2,648.2999999970198,1988.8000000044703,2637.10000000149,221,0,-1.5908226733533057,1,0.40737305783475947
we2750fa,correct,3713.79999999702,733.7999999970198,582.7999999970198,1669.6000000014901,1669.6000000014901,TRUE,3,2403.39999999851,582.7999999970198,2986.1999999955297,223,1,0.46026399736177437,1,0.5280973855244497
we2750fa,correct,3268.3000000044703,703.6000000014901,1650.3000000044703,NA,1650.3000000044703,FALSE,2,703.6000000014901,1650.3000000044703,2353.9000000059605,224,1,0.5874263464220915,1,0.7366455566446563
we2750fa,correct,3812,858.1999999955297,2258.4000000059605,NA,2258.4000000059605,FALSE,2,858.1999999955297,2258.4000000059605,3116.60000000149,226,1,0.35202233547647066,1,0.9266444904824735
we2750fa,correct,2393.10000000149,1499.6000000014901,NA,NA,1499.6000000014901,TRUE,1,1499.6000000014901,0,1499.6000000014901,227,1,0.5303122995134075,0,-1.5908226733533057
we2750fa,correct,2101.6999999955297,1285.6999999955297,NA,NA,1285.6999999955297,TRUE,1,1285.6999999955297,0,1285.6999999955297,228,1,0.8108196200936617,1,0.6851824664648897
w73a81a9,correct,3519.29999999702,2547.1000000089407,NA,NA,2547.1000000089407,TRUE,1,2547.1000000089407,0,2547.1000000089407,229,1,1.2371886656996678,0,-1.0542322523887115
w73a81a9,correct,3702.099999994039,2797.3999999910593,NA,NA,2797.3999999910593,TRUE,1,2797.3999999910593,0,2797.3999999910593,230,1,1.2112214303195235,0,-1.0542322523887115
w73a81a9,correct,3898.800000011921,3328.300000011921,NA,NA,3328.300000011921,TRUE,1,3328.300000011921,0,3328.300000011921,231,1,-0.1697683332656823,1,0.3596285682225886
w73a81a9,correct,3969,3125.5999999940395,NA,NA,3125.5999999940395,TRUE,1,3125.5999999940395,0,3125.5999999940395,236,1,0.8762928239156503,1,1.2033003792875472
w73a81a9,correct,2906.5,2306.0999999940395,NA,NA,2306.0999999940395,TRUE,1,2306.0999999940395,0,2306.0999999940395,237,1,0.9277734867414457,1,0.9263336904752003
w73a81a9,correct,3437.800000011921,2469.9000000059605,NA,NA,2469.9000000059605,TRUE,1,2469.9000000059605,0,2469.9000000059605,238,1,0.8353649018251668,1,1.3079009709406968
w73a81a9,correct,2768.4000000059605,2179.4000000059605,NA,NA,2179.4000000059605,TRUE,1,2179.4000000059605,0,2179.4000000059605,239,1,0.9917717988184057,1,0.6864092710406785
w73a81a9,correct,2976.800000011921,2469,NA,NA,2469,TRUE,1,2469,0,2469,240,1,0.4340241861869657,0,-1.0542322523887115
w73a81a9,correct,2853.29999999702,2414.5,NA,NA,2414.5,TRUE,1,2414.5,0,2414.5,244,1,1.2373091766903141,0.5,0.04242474425687769
w73a81a9,correct,3725.5,1290.8999999910593,1925.4000000059605,NA,1925.4000000059605,FALSE,2,1290.8999999910593,1925.4000000059605,3216.2999999970198,246,0.5,-0.47251180658399317,1,1.2432538325587394
w73a81a9,correct,3590.3999999910593,775.3999999910593,1840.1000000089407,NA,1840.1000000089407,FALSE,2,775.3999999910593,1840.1000000089407,2615.5,247,0,-1.0542322523887115,1,1.3705966227890696
w6eee2df,correct,4206.300000011921,848.6999999880791,3043.800000011921,NA,3043.800000011921,FALSE,2,848.6999999880791,3043.800000011921,3892.5,248,0,-1.6496361035567226,1,0.4248784715667045
w6eee2df,correct,4923.300000011921,3806.4000000059605,NA,NA,3806.4000000059605,TRUE,1,3806.4000000059605,0,3806.4000000059605,249,1,0.3741321856664106,1,0.8363198454491768
w6eee2df,correct,4532.9000000059605,1066.5,559.7000000178814,2356.699999988079,2356.699999988079,TRUE,3,3423.199999988079,559.7000000178814,3982.9000000059605,250,1,0.5722247652703076,1,0.4423135330682818
w6eee2df,correct,2552.4000000059605,1806.4000000059605,NA,NA,1806.4000000059605,TRUE,1,1806.4000000059605,0,1806.4000000059605,251,1,0.8911433366116697,0,-1.6496361035567226
w6eee2df,correct,4149.4000000059605,713,588.3000000119209,285.09999999403954,2231.9000000059605,FALSE,4,998.0999999940395,2820.2000000178814,3818.300000011921,252,1,0.4280850575660861,1,0.7372123248611074
w6eee2df,correct,3300.300000011921,568.8000000119209,600,1226.7999999821186,1226.7999999821186,TRUE,3,1795.5999999940395,600,2395.5999999940395,253,1,0.13883970819518543,0,-1.6496361035567226
w6eee2df,correct,3083.7999999821186,551.1999999880791,674.7000000178814,1489.2999999821186,1489.2999999821186,TRUE,3,2040.4999999701977,674.7000000178814,2715.199999988079,254,1,0.20988434910789702,0,-1.6496361035567226
w6eee2df,correct,3347.5999999940395,518.2999999821186,615.5,1113.300000011921,1113.300000011921,TRUE,3,1631.5999999940395,615.5,2247.0999999940395,255,1,0.6401215028898254,0,-1.6496361035567226
w6eee2df,correct,3084.2999999821186,565.0999999940395,1685.2999999821186,NA,1685.2999999821186,FALSE,2,565.0999999940395,1685.2999999821186,2250.399999976158,256,1,0.8087349423248092,1,0.8253604548425545
w6eee2df,correct,2848.5,602.0999999940395,1510.199999988079,NA,1510.199999988079,FALSE,2,602.0999999940395,1510.199999988079,2112.2999999821186,257,1,0.4645050056940111,1,0.6539028056533369
w6eee2df,correct,3730.599999994039,695.2000000178814,1517.7999999821186,594.3000000119209,594.3000000119209,TRUE,3,1289.5000000298023,1517.7999999821186,2807.300000011921,258,1,0.5520143962239247,1,0.805909081858796
w6eee2df,correct,3033.5999999940395,593.0999999940395,2128.9000000059605,NA,2128.9000000059605,FALSE,2,593.0999999940395,2128.9000000059605,2722,259,1,0.7987628009876173,1,0.8051082070226565
w6eee2df,correct,2570.7000000178814,752.2000000178814,496.89999997615814,842.4000000059605,842.4000000059605,TRUE,3,1594.6000000238419,496.89999997615814,2091.5,260,1,0.5772402107896102,0,-1.6496361035567226
w6eee2df,correct,3513.5999999940395,1650.800000011921,1546.5,NA,1546.5,FALSE,2,1650.800000011921,1546.5,3197.300000011921,261,1,0.3641385668164994,1,0.8539013303147654
w6eee2df,correct,3872.599999994039,1163.0999999940395,838.5,795.8000000119209,518.0999999940395,FALSE,4,1958.9000000059605,1356.5999999940395,3315.5,262,1,-0.26337837308829504,1,-0.04586886058667287
w6eee2df,correct,3411.699999988079,690.1999999880791,357.59999999403954,936.5999999940395,936.5999999940395,TRUE,3,1626.7999999821186,357.59999999403954,1984.3999999761581,263,1,0.8946514167530956,0,-1.6496361035567226
w6eee2df,correct,3240.2999999821186,691.9000000059605,578,1045,1045,TRUE,3,1736.9000000059605,578,2314.9000000059605,265,1,0.7234099117349462,0,-1.6496361035567226
w6eee2df,correct,3035.9000000059605,809.0999999940395,482.90000000596046,349.69999998807907,1110.5,FALSE,4,1158.7999999821186,1593.4000000059605,2752.199999988079,266,1,0.21074502079471016,1,0.8237213477663711
w0b76bb4,correct,4385.300000011921,813.8999999761581,2905.600000023842,NA,2905.600000023842,FALSE,2,813.8999999761581,2905.600000023842,3719.5,268,0,-1.0295715730063149,1,0.9011114229802688
w0b76bb4,correct,3507.599999964237,592,1962.5,NA,1962.5,FALSE,2,592,1962.5,2554.5,269,1,1.1698551571252984,1,1.0795579098347587
w0b76bb4,correct,3587.5,653.8999999761581,1979.300000011921,NA,1979.300000011921,FALSE,2,653.8999999761581,1979.300000011921,2633.199999988079,270,1,0.6283383866700997,1,1.055471577200463
w0b76bb4,correct,3720,535.7000000476837,2605.099999964237,NA,2605.099999964237,FALSE,2,535.7000000476837,2605.099999964237,3140.800000011921,271,0,-1.0295715730063149,1,0.6535814095155991
w0b76bb4,correct,3213.400000035763,536.3000000119209,1876.1000000238419,NA,1876.1000000238419,FALSE,2,536.3000000119209,1876.1000000238419,2412.400000035763,273,0,-1.0295715730063149,1,0.9581331816039911
w0b76bb4,correct,2400.300000011921,464.80000001192093,1335.0999999642372,NA,1335.0999999642372,FALSE,2,464.80000001192093,1335.0999999642372,1799.8999999761581,274,0,-1.0295715730063149,1,0.7485661849381766
w0b76bb4,correct,2624.399999976158,392.5999999642372,1746.699999988079,NA,1746.699999988079,FALSE,2,392.5999999642372,1746.699999988079,2139.2999999523163,276,0,-1.0295715730063149,1,0.9292315739284674
w0b76bb4,correct,4260.600000023842,485.10000002384186,354.69999998807907,2005.4000000357628,2005.4000000357628,FALSE,3,2490.5000000596046,354.69999998807907,2845.2000000476837,277,1,0.48805414107008604,1,0.9198272925305505
w0b76bb4,correct,2249.100000023842,424.5,1289.800000011921,NA,1289.800000011921,FALSE,2,424.5,1289.800000011921,1714.300000011921,278,1,0.9359326764753835,1,1.0469415925700223
w0b76bb4,correct,3469.7000000476837,569.6000000238419,351.60000002384186,1165.2999999523163,1165.2999999523163,TRUE,3,1734.8999999761581,351.60000002384186,2086.5,279,1,0.9163584113076471,0,-1.0295715730063149
w0b76bb4,correct,3101.899999976158,489.89999997615814,506.30000001192093,921,599.3999999761581,FALSE,4,1410.8999999761581,1105.699999988079,2516.599999964237,280,1,0.9488475687915056,1,0.9915885547759775
w0b76bb4,correct,3284.599999964237,432.89999997615814,829.8000000119209,1457.199999988079,1457.199999988079,TRUE,3,1890.0999999642372,829.8000000119209,2719.899999976158,281,1,0.9369863177883248,0,-1.0295715730063149
w0b76bb4,correct,2203.399999976158,491.39999997615814,444.5,772,772,TRUE,3,1263.3999999761581,444.5,1707.8999999761581,283,1,1.19822906196935,0,-1.0295715730063149
w0b76bb4,correct,2092.400000035763,385.7000000476837,1311,NA,1311,FALSE,2,385.7000000476837,1311,1696.7000000476837,285,0,-1.0295715730063149,1,1.1250091079706857
webb4055,correct,2773.7999999523163,1561.2000000476837,NA,NA,1561.2000000476837,TRUE,1,1561.2000000476837,0,1561.2000000476837,286,1,-2.4664539880427876,1,0.11319018001743206
webb4055,correct,3625.700000047684,2780.7999999523163,NA,NA,2780.7999999523163,TRUE,1,2780.7999999523163,0,2780.7999999523163,287,1,-0.2702427151928711,1,0.32811274292884945
webb4055,correct,1831.2000000476835,1527.6000001430511,NA,NA,1527.6000001430511,TRUE,1,1527.6000001430511,0,1527.6000001430511,288,1,-1.6235105994818562,1,-0.6685236034565869
webb4055,correct,1502.1000001430511,872.4000000953674,NA,NA,872.4000000953674,TRUE,1,872.4000000953674,0,872.4000000953674,289,1,-0.15702992090252815,1,0.8284641444937103
webb4055,correct,1289.9000000953674,877.4000000953674,NA,NA,877.4000000953674,TRUE,1,877.4000000953674,0,877.4000000953674,290,1,1.140545967076096,1,-0.693225062565563
webb4055,correct,1505.7000000476835,1046.5,NA,NA,1046.5,TRUE,1,1046.5,0,1046.5,291,1,1.1775812587333312,1,-0.31337986158982184
webb4055,correct,1681.7000000476835,1512.5999999046326,NA,NA,1512.5999999046326,TRUE,1,1512.5999999046326,0,1512.5999999046326,292,1,0.1274183424008708,1,0.6154800600260201
webb4055,correct,1383.6000001430511,965.9000000953674,NA,NA,965.9000000953674,TRUE,1,965.9000000953674,0,965.9000000953674,293,1,0.4229875109072857,1,-0.28837119193543914
webb4055,correct,995.6999998092653,790.2999999523163,NA,NA,790.2999999523163,TRUE,1,790.2999999523163,0,790.2999999523163,294,1,0.26826781874822747,1,0.16613175957392343
webb4055,correct,1688,1023.3999998569489,NA,NA,1023.3999998569489,TRUE,1,1023.3999998569489,0,1023.3999998569489,295,1,0.1322390202673336,1,-0.222440598259572
webb4055,correct,1355.5,1152.2000000476837,NA,NA,1152.2000000476837,TRUE,1,1152.2000000476837,0,1152.2000000476837,296,1,-1.1607365964973633,1,-2.4015103302634593
webb4055,correct,1330.3999998569489,1063.5,NA,NA,1063.5,TRUE,1,1063.5,0,1063.5,297,1,0.6544633051346779,1,1.2102665907831378
webb4055,correct,1711.5999999046326,1216.6999998092651,NA,NA,1216.6999998092651,TRUE,1,1216.6999998092651,0,1216.6999998092651,298,1,-1.1209651994550358,1,-0.7037043466621737
webb4055,correct,1288.9000000953674,1049.4000000953674,NA,NA,1049.4000000953674,TRUE,1,1049.4000000953674,0,1049.4000000953674,299,1,0.6642839010154102,1,1.1757534974209611
webb4055,correct,1064.9000000953674,764.1000001430511,NA,NA,764.1000001430511,TRUE,1,764.1000001430511,0,764.1000001430511,300,1,-0.6878221945567609,1,0.7918913146046542
webb4055,correct,1359,1106.7999999523163,NA,NA,1106.7999999523163,TRUE,1,1106.7999999523163,0,1106.7999999523163,301,1,-2.3076596624141987,1,0.8400337379921696
webb4055,correct,1813.5,1262.6000001430511,NA,NA,1262.6000001430511,TRUE,1,1262.6000001430511,0,1262.6000001430511,302,1,-0.4482981144671492,1,0.8703596114986998
webb4055,correct,1529.5,1302.0999999046326,NA,NA,1302.0999999046326,TRUE,1,1302.0999999046326,0,1302.0999999046326,303,1,0.6072899803017762,1,-0.18839694470240023
webb4055,correct,1003,816.2999999523163,NA,NA,816.2999999523163,TRUE,1,816.2999999523163,0,816.2999999523163,304,1,0.6494170571390616,1,0.6273075825712353
wf9c28f1,correct,2673.5,375.60000000009313,1123.8000000002794,NA,1123.8000000002794,FALSE,2,375.60000000009313,1123.8000000002794,1499.4000000003725,305,0,-1.9408765847044576,1,0.19901206759037596
wf9c28f1,correct,3947.899999999907,518.6000000000931,608.1999999997206,1690.8000000002794,1690.8000000002794,FALSE,3,2209.4000000003725,608.1999999997206,2817.600000000093,306,1,0.6062378151272161,1,0.4052107109677169
wf9c28f1,correct,3730.399999999907,583.1000000000931,1527.6999999997206,NA,1527.6999999997206,FALSE,2,583.1000000000931,1527.6999999997206,2110.7999999998137,307,1,0.5813201811083668,1,0.3177235910917987
wf9c28f1,correct,2761.8000000002794,540.8000000002794,1476.3999999999069,NA,1476.3999999999069,FALSE,2,540.8000000002794,1476.3999999999069,2017.2000000001863,308,1,0.08911858353340428,1,0.5326919912787343
wf9c28f1,correct,2994.6999999997206,520,869.5999999996275,683.4000000003725,683.4000000003725,TRUE,3,1203.4000000003725,869.5999999996275,2073,309,1,0.5235727229331796,0,-1.9408765847044576
wf9c28f1,correct,2428.8000000002794,646.6000000000931,883.7000000001863,NA,883.7000000001863,FALSE,2,646.6000000000931,883.7000000001863,1530.3000000002794,310,1,0.4962287445313635,1,0.15656776787640395
wf9c28f1,correct,2345.8000000002794,602.3000000002794,1004.1999999997206,NA,1004.1999999997206,FALSE,2,602.3000000002794,1004.1999999997206,1606.5,311,1,0.5345976009202825,1,0.7021676054701148
wf9c28f1,correct,2294,524.8999999999069,1326.6000000000931,NA,1326.6000000000931,FALSE,2,524.8999999999069,1326.6000000000931,1851.5,312,1,0.6234863362198777,1,0.6378059997649216
wf9c28f1,correct,2862,461.89999999990687,1321.6000000000931,NA,1321.6000000000931,TRUE,2,461.89999999990687,1321.6000000000931,1783.5,313,1,0.47981438724210185,1,0.4581477603180414
wf9c28f1,correct,2405.100000000093,447.5,599.1999999997206,996.3000000002794,996.3000000002794,TRUE,3,1443.8000000002794,599.1999999997206,2043,314,1,0.48013295814397494,0,-1.9408765847044576
wf9c28f1,correct,3275,442.60000000009313,2075.6999999997206,NA,2075.6999999997206,FALSE,2,442.60000000009313,2075.6999999997206,2518.2999999998137,315,1,0.3670049469696257,1,0.5822072419860863
wf9c28f1,correct,1948.8999999999069,545.7000000001863,669.7999999998137,NA,669.7999999998137,FALSE,2,545.7000000001863,669.7999999998137,1215.5,316,0,-1.9408765847044576,1,0.7421584636544512
wf9c28f1,correct,2460.0999999996275,503,1607.5999999996275,NA,1607.5999999996275,FALSE,2,503,1607.5999999996275,2110.5999999996275,317,1,0.793474822787481,1,0.6591930848534393
wf9c28f1,correct,2206,495.59999999962747,1326.1000000000931,NA,1326.1000000000931,FALSE,2,495.59999999962747,1326.1000000000931,1821.6999999997206,318,1,0.8307956997684215,1,0.38950093997686824
wf9c28f1,correct,3285.600000000093,586.1000000000931,665.1000000000931,302.5,615.8999999999069,TRUE,5,1504.5,1173,2677.5,319,1,0.49583390071578975,1,0.5939774516122288
wf9c28f1,correct,2603.5,572.6000000000931,767.8999999999069,1047.2000000001863,1047.2000000001863,TRUE,3,1619.8000000002794,767.8999999999069,2387.7000000001863,320,1,0.02486008814197071,1,0.3036693705264599
wf9c28f1,correct,2536.2000000001863,832.3999999999069,405.5,832.3000000002794,832.3000000002794,TRUE,3,1664.7000000001863,405.5,2070.2000000001863,322,1,0.1053768320267327,0,-1.9408765847044576
wf9c28f1,correct,2266.1999999997206,425.60000000009313,552.1999999997206,983.2000000001863,983.2000000001863,TRUE,3,1408.8000000002794,552.1999999997206,1961,323,1,0.4683406337413896,0,-1.9408765847044576
w4c5f3de,correct,9092.400000095367,1050.2000000476837,7521.299999952316,NA,7521.299999952316,FALSE,2,1050.2000000476837,7521.299999952316,8571.5,327,0.5,-0.7837420339260383,1,-0.4855473464357151
w4c5f3de,correct,2231.2999999523163,1597.2999999523163,NA,NA,1597.2999999523163,TRUE,1,1597.2999999523163,0,1597.2999999523163,328,1,1.4223817234267704,1,1.7384590848965675
w4c5f3de,correct,2965,2392.5999999046326,NA,NA,2392.5999999046326,TRUE,1,2392.5999999046326,0,2392.5999999046326,329,1,1.693840804804047,1,1.4515725694854302
w4c5f3de,correct,10206.700000047684,1139.2000000476837,8518.099999904633,NA,8518.099999904633,FALSE,2,1139.2000000476837,8518.099999904633,9657.299999952316,330,0.5,-0.4643663549675023,0.5,-1.0115408711993255
w4c5f3de,correct,7777.599999904633,2382.5999999046326,1696.5,NA,1696.5,FALSE,2,2382.5999999046326,1696.5,4079.0999999046326,331,1,0.06627406676367789,1,0.21563808066322565
w4c5f3de,correct,3655,1018.5999999046326,2290.100000143051,NA,2290.100000143051,FALSE,2,1018.5999999046326,2290.100000143051,3308.7000000476837,332,0.5,-0.8530988943979307,1,-0.08243786309070948
w4c5f3de,correct,3381.5,807.2999999523163,2154.9000000953674,NA,2154.9000000953674,FALSE,2,807.2999999523163,2154.9000000953674,2962.2000000476837,333,1,-0.606365467656186,1,-0.7852446175263803
w4c5f3de,correct,2615.399999856949,639.5999999046326,1501.2999999523163,NA,1501.2999999523163,FALSE,2,639.5999999046326,1501.2999999523163,2140.899999856949,334,1,0.3714326012240772,1,1.6763017598872958
w4c5f3de,correct,2272.400000095367,629.2000000476837,1358.1000001430511,NA,1358.1000001430511,FALSE,2,629.2000000476837,1358.1000001430511,1987.3000001907349,335,1,-0.7226391957444654,1,1.358993155301933
w4c5f3de,correct,2247.900000095367,622.5,1305.5,NA,1305.5,FALSE,2,622.5,1305.5,1928,336,0.5,-1.2558672093923466,1,1.8886748442267656
w4c5f3de,correct,13436.599999904633,584.5,2004,10172.199999809265,10172.199999809265,TRUE,3,10756.699999809265,2004,12760.699999809265,337,0.5,-1.2689107177401477,0.5,-0.4059453589146799
w4c5f3de,correct,9945.700000047684,1061.7999999523163,770.0999999046326,7680.300000190735,7680.300000190735,TRUE,3,8742.100000143051,770.0999999046326,9512.200000047684,338,0.5,-0.5958243509339589,0.5,-0.7130837335683302
w4c5f3de,correct,2192.5,1726.9000000953674,NA,NA,1726.9000000953674,TRUE,1,1726.9000000953674,0,1726.9000000953674,339,1,0.6768539098587297,1,0.9641182454560545
w4c5f3de,correct,2483.599999904633,2137.7000000476837,NA,NA,2137.7000000476837,TRUE,1,2137.7000000476837,0,2137.7000000476837,340,1,-0.40492804638652513,1,0.3090554386354628
w4c5f3de,correct,2775.2999999523163,2502.2999999523163,NA,NA,2502.2999999523163,TRUE,1,2502.2999999523163,0,2502.2999999523163,341,0,-1.3318343135477573,1,1.83959009939779
w4c5f3de,correct,1440.6000001430511,1138.5,NA,NA,1138.5,TRUE,1,1138.5,0,1138.5,342,1,-0.2799104336708051,1,-0.5482022528577906
w9931506,correct,8565.299999952316,618.2999999523163,1000.5,5910.800000071526,5910.800000071526,TRUE,3,6529.100000023842,1000.5,7529.600000023842,344,1,0.1816927404525706,1,1.3909536575692176
w9931506,correct,3835.200000047684,609.3999999761581,1732.3000000715256,NA,1732.3000000715256,TRUE,2,609.3999999761581,1732.3000000715256,2341.7000000476837,345,1,1.6475343171126091,1,1.5032669049470082
w9931506,correct,11062.399999976158,535.1000000238419,2149.399999976158,3540.399999976158,964.2000000476837,FALSE,6,5585.600000023842,4168.899999976158,9754.5,346,0,-0.8823719306325802,0,-0.8823719306325802
w9931506,correct,8509.399999976158,386.2000000476837,558.2999999523163,6709.5,6709.5,TRUE,3,7095.700000047684,558.2999999523163,7654,347,0.5,-0.48730405178175606,0,-0.8823719306325802
w9931506,correct,3980.3000000715256,663.6000000238419,2347,NA,2347,FALSE,2,663.6000000238419,2347,3010.600000023842,349,1,0.22409913642693022,1,1.886051390608373
w9931506,correct,8789.100000023842,631.2000000476837,645,6816.5,6816.5,TRUE,3,7447.700000047684,645,8092.700000047684,350,1,0.5457210611132908,0,-0.8823719306325802
w9931506,correct,4664.5,633.7999999523163,521.8999999761581,2527.100000023842,2527.100000023842,TRUE,3,3160.899999976158,521.8999999761581,3682.7999999523163,352,1,1.4283932512978956,0,-0.8823719306325802
w9931506,correct,3773.600000023842,648.5,2383.600000023842,NA,2383.600000023842,FALSE,2,648.5,2383.600000023842,3032.100000023842,353,0.5,-0.41937533183577197,1,1.080421385355318
w9931506,correct,8877.700000047684,451.5,4975.200000047684,2737.6999999284744,2737.6999999284744,TRUE,3,3189.1999999284744,4975.200000047684,8164.399999976158,355,0,-0.8823719306325802,0,-0.8823719306325802
w9931506,correct,4619,592.8999999761581,533.7999999523163,3176.399999976158,3176.399999976158,TRUE,3,3769.2999999523163,533.7999999523163,4303.099999904633,356,0.5,-0.15334478212323308,0,-0.8823719306325802
w9931506,correct,7840.200000047684,536.2000000476837,648,3409.7999999523163,2684.7999999523163,FALSE,4,3946,3332.7999999523163,7278.799999952316,357,0,-0.8823719306325802,0,-0.8823719306325802
w9931506,correct,9697,527.5,8496.099999904633,NA,8496.099999904633,FALSE,2,527.5,8496.099999904633,9023.599999904633,358,1,0.2223228659620233,1,1.1729095092049904
w9931506,correct,3177.600000023842,436.39999997615814,415.7999999523163,567.2000000476837,1181.7999999523163,FALSE,4,1003.6000000238419,1597.5999999046326,2601.1999999284744,359,1,1.6958925182228084,1,0.7037797063278319
w9931506,correct,6896.199999928474,516.1000000238419,872.6999999284744,834.6000000238419,4246.899999976158,FALSE,4,1350.7000000476837,5119.599999904633,6470.299999952316,360,0,-0.8823719306325802,1,1.5669749982985801
w4445796,correct,2779.1999999284744,1936.2999999523163,NA,NA,1936.2999999523163,TRUE,1,1936.2999999523163,0,1936.2999999523163,363,1,0.7816273929421645,1,0.3318699749089488
w4445796,correct,3096.100000023842,1980,NA,NA,1980,TRUE,1,1980,0,1980,364,1,0.5792054717902333,0.5,-0.686279184242175
w4445796,correct,2352.2000000476837,1587.3999999761581,NA,NA,1587.3999999761581,TRUE,1,1587.3999999761581,0,1587.3999999761581,365,1,0.6915049146725065,0,-1.4884940595328089
w4445796,correct,2152.600000023842,1620.7000000476837,NA,NA,1620.7000000476837,TRUE,1,1620.7000000476837,0,1620.7000000476837,368,1,0.33374507308784035,1,0.9583539950504705
w4445796,correct,6878.600000023842,2537.5,3284.7000000476837,NA,3284.7000000476837,FALSE,2,2537.5,3284.7000000476837,5822.200000047684,369,0,-1.4884940595328089,1,0.7626023019300812
w4445796,correct,4564.800000071526,2016.8000000715256,1843.7999999523163,NA,1843.7999999523163,FALSE,2,2016.8000000715256,1843.7999999523163,3860.600000023842,371,0.5,-1.0041300426664883,1,0.6602598690264795
w4445796,correct,2201.400000095367,1554.8000000715256,NA,NA,1554.8000000715256,TRUE,1,1554.8000000715256,0,1554.8000000715256,372,1,0.30687494980057745,1,0.964987460536534
w4445796,correct,5094.699999928474,1882.8999999761581,2253,NA,2253,FALSE,2,1882.8999999761581,2253,4135.899999976158,373,0,-1.4884940595328089,1,0.5159206266529198
w4445796,correct,3723.299999952316,1622.2999999523163,1611.2000000476837,NA,1611.2000000476837,FALSE,2,1622.2999999523163,1611.2000000476837,3233.5,374,0.5,-0.7850588901800203,1,1.0058139579831038
w4445796,correct,4279.800000071526,3445.8000000715256,NA,NA,3445.8000000715256,TRUE,1,3445.8000000715256,0,3445.8000000715256,375,1,0.782816496567486,1,0.5178508028141342
w4445796,correct,2125.7000000476837,1359,NA,NA,1359,TRUE,1,1359,0,1359,376,1,0.9487901208314382,0,-1.4884940595328089
w4445796,correct,2399.7999999523163,1791.1000000238419,NA,NA,1791.1000000238419,TRUE,1,1791.1000000238419,0,1791.1000000238419,377,1,0.5872433552533872,1,0.6809945638052574
w4445796,correct,1838,1351.7999999523163,NA,NA,1351.7999999523163,TRUE,1,1351.7999999523163,0,1351.7999999523163,378,1,0.7861288048832704,1,0.8733598749869532
w4445796,correct,2162.7000000476837,1649.3999999761581,NA,NA,1649.3999999761581,TRUE,1,1649.3999999761581,0,1649.3999999761581,379,1,0.6563036757754326,1,0.39718964591109307
wd9fa70b,correct,3470.400000095367,977.0999999046326,2003,NA,2003,FALSE,2,977.0999999046326,2003,2980.0999999046326,381,1,-0.19146904111975513,1,1.0059442491394712
wd9fa70b,correct,3086.800000190735,2454.300000190735,NA,NA,2454.300000190735,TRUE,1,2454.300000190735,0,2454.300000190735,382,1,-0.9428146790767971,1,0.7397914680369372
wd9fa70b,correct,2257.599999904633,1893.0999999046326,NA,NA,1893.0999999046326,TRUE,1,1893.0999999046326,0,1893.0999999046326,383,1,-0.786406084897203,1,2.4856703764663997
wd9fa70b,correct,1901.0999999046328,1572.7999997138977,NA,NA,1572.7999997138977,TRUE,1,1572.7999997138977,0,1572.7999997138977,384,1,0.505653107595848,1,1.162109852737423
wd9fa70b,correct,1723.1999998092651,1330.3000001907349,NA,NA,1330.3000001907349,TRUE,1,1330.3000001907349,0,1330.3000001907349,385,1,-0.057519934085470174,1,-1.1334461904400726
wd9fa70b,correct,1578.8000001907349,1084.7000002861023,NA,NA,1084.7000002861023,TRUE,1,1084.7000002861023,0,1084.7000002861023,386,1,1.0247436380854291,1,-0.47823132729831147
wd9fa70b,correct,2018.4000000953672,1640.4000000953674,NA,NA,1640.4000000953674,TRUE,1,1640.4000000953674,0,1640.4000000953674,387,1,0.6068238918726869,1,-3.235478944962326
wd9fa70b,correct,1506.5999999046326,1233.4000000953674,NA,NA,1233.4000000953674,TRUE,1,1233.4000000953674,0,1233.4000000953674,388,1,-0.49675478769834547,1,-0.7334078480778508
wd9fa70b,correct,1616.9000000953674,1201.8000001907349,NA,NA,1201.8000001907349,TRUE,1,1201.8000001907349,0,1201.8000001907349,389,1,1.238116865675439,1,0.715224543758424
wd9fa70b,correct,1596.3999996185305,1161.1999998092651,NA,NA,1161.1999998092651,TRUE,1,1161.1999998092651,0,1161.1999998092651,390,1,-0.1066394928869561,1,0.15733404880174848
wd9fa70b,correct,1828.4000000953672,1353.5,NA,NA,1353.5,TRUE,1,1353.5,0,1353.5,391,1,-0.546121339631215,1,0.2600821141767925
wd9fa70b,correct,1559.7000002861023,1184.8000001907349,NA,NA,1184.8000001907349,TRUE,1,1184.8000001907349,0,1184.8000001907349,392,1,0.648273742896574,1,-1.7728644883965048
wd9fa70b,correct,1626.7999997138977,1160.0999999046326,NA,NA,1160.0999999046326,TRUE,1,1160.0999999046326,0,1160.0999999046326,393,1,-0.32888720562122964,1,0.10090691380855864
wd9fa70b,correct,1542.5999999046326,1133,NA,NA,1133,TRUE,1,1133,0,1133,394,1,0.7999109454679406,1,0.0866073992866572
wd9fa70b,correct,1868,1264.4000000953674,NA,NA,1264.4000000953674,TRUE,1,1264.4000000953674,0,1264.4000000953674,395,1,0.2933227997244106,1,0.5243012889768806
wd9fa70b,correct,1150.9000000953674,701.5,NA,NA,701.5,TRUE,1,701.5,0,701.5,396,1,0.1814975132240435,1,0.02257812666182908
wd9fa70b,correct,1538.3999996185305,1127.6999998092651,NA,NA,1127.6999998092651,TRUE,1,1127.6999998092651,0,1127.6999998092651,397,1,-1.0412975828238704,1,0.6619357252876661
wd9fa70b,correct,1255,923.3000001907349,NA,NA,923.3000001907349,TRUE,1,923.3000001907349,0,923.3000001907349,398,1,-0.2522826396945968,1,0.059892639757206816
wd9fa70b,correct,1232.5,899.2000002861023,NA,NA,899.2000002861023,TRUE,1,899.2000002861023,0,899.2000002861023,399,1,-0.8843554097688398,1,0.18933243042205866
w27c8f85,correct,8910.89999999851,1190.2999999970198,5335.70000000298,545.0999999977648,816.1000000014901,FALSE,4,1735.3999999947846,6151.80000000447,7887.199999999255,400,1,-1.0335962191057417,1,-1.4179355805787148
w27c8f85,correct,5807.10000000149,1126.4000000022352,856.6999999992549,1240.0999999977648,648.1999999992549,TRUE,5,3014.699999999255,1232.5,4247.199999999255,401,1,1.1685101069668677,1,1.4219232611039625
w27c8f85,correct,9576.5,3520.699999999255,2567.900000002235,664,1855.8999999985099,FALSE,4,4184.699999999255,4423.800000000745,8608.5,402,0.5,-0.7959483361850941,1,-0.6029753609003502
w27c8f85,correct,7407.60000000149,1127.3999999985099,3863.800000000745,NA,3863.800000000745,TRUE,2,1127.3999999985099,3863.800000000745,4991.199999999255,403,1,0.28747462178295935,1,-0.2769658619738771
w27c8f85,correct,5287.699999999255,2199.599999997765,2088.10000000149,NA,2088.10000000149,FALSE,2,2199.599999997765,2088.10000000149,4287.699999999255,404,1,-1.3874850534746852,1,1.1040396888672888
w27c8f85,correct,6399.300000000745,1719.3999999985099,3440.2000000029802,NA,3440.2000000029802,FALSE,2,1719.3999999985099,3440.2000000029802,5159.60000000149,405,1,0.14717613744962374,1,1.234653801460001
w27c8f85,correct,4495.400000002235,1159.4000000022352,983.8999999985099,1511.1000000014901,1511.1000000014901,TRUE,3,2670.5000000037253,983.8999999985099,3654.400000002235,406,1,0.7706216867499905,1,1.1179994619183737
w27c8f85,correct,3967.10000000149,727.1000000014901,2288.199999999255,NA,2288.199999999255,FALSE,2,727.1000000014901,2288.199999999255,3015.300000000745,407,0.5,-1.538755793748607,1,0.8534013980061806
w27c8f85,correct,6135.199999999255,2951.099999997765,2280,NA,2280,FALSE,2,2951.099999997765,2280,5231.099999997765,408,1,-0.4864277620782193,1,1.1478842311114457
w27c8f85,correct,5822.89999999851,1830.8999999985099,3110.900000002235,NA,3110.900000002235,FALSE,2,1830.8999999985099,3110.900000002235,4941.800000000745,409,1,0.3431116354421792,1,1.1733695391388146
w27c8f85,correct,6270.10000000149,3567,1974.9000000022352,NA,1974.9000000022352,FALSE,2,3567,1974.9000000022352,5541.900000002235,410,1,0.5549988813494972,1,0.5263497522872707
w27c8f85,correct,4455.400000002235,1103.2000000029802,896.3999999985099,1495.699999999255,1495.699999999255,TRUE,3,2598.900000002235,896.3999999985099,3495.300000000745,412,1,0.9646075702192488,1,0.43145250922635475
w27c8f85,correct,7094.199999999255,1215.199999999255,4854.699999999255,NA,4854.699999999255,FALSE,2,1215.199999999255,4854.699999999255,6069.89999999851,413,0,-2.1099581245211345,1,-0.4479436876432149
w27c8f85,correct,6118.29999999702,1159.0999999977648,4232.5,NA,4232.5,FALSE,2,1159.0999999977648,4232.5,5391.599999997765,414,1,-0.8316636444503828,1,-0.27193587544964004
w27c8f85,correct,5047.300000000745,1654.1000000014901,1423.7999999970198,1321.4000000022352,1321.4000000022352,TRUE,3,2975.5000000037253,1423.7999999970198,4399.300000000745,415,1,0.5898733817112227,1,0.007293773777766661
w27c8f85,correct,3855.599999997765,1303.5999999977648,695,1225,1225,TRUE,3,2528.599999997765,695,3223.599999997765,416,1,0.25960377156940595,0.5,-1.6552182784257978
w27c8f85,correct,3710.099999997765,991.0999999977648,616,1336,1336,TRUE,3,2327.099999997765,616,2943.099999997765,417,1,1.448218286708722,0.5,-1.0445408241215783
w27c8f85,correct,5079.20000000298,2023.4000000022352,2320.099999997765,NA,2320.099999997765,FALSE,2,2023.4000000022352,2320.099999997765,4343.5,418,1,-0.17664472465360095,1,0.13107122625103113
wacf3b96,correct,3646,2517.7000000001863,NA,NA,2517.7000000001863,TRUE,1,2517.7000000001863,0,2517.7000000001863,420,1,-0.12292962007964753,1,1.16458842794014
wacf3b96,correct,2680.9000000003725,1704.9000000003725,NA,NA,1704.9000000003725,TRUE,1,1704.9000000003725,0,1704.9000000003725,421,1,0.4614049989851242,1,1.1850001626461992
wacf3b96,correct,2448.2000000001863,1489,NA,NA,1489,TRUE,1,1489,0,1489,423,1,-0.2957658781012109,1,-0.8047355099354653
wacf3b96,correct,3048.300000000745,1729.4000000003725,NA,NA,1729.4000000003725,TRUE,1,1729.4000000003725,0,1729.4000000003725,424,1,0.8939466700745843,1,0.9909571917547007
wacf3b96,correct,7282.100000000559,4185,2220.4000000003725,NA,2220.4000000003725,FALSE,2,4185,2220.4000000003725,6405.4000000003725,425,0,-1.8644869432844513,1,0.34139832190215424
wacf3b96,correct,2301.100000000559,1382.7000000001863,NA,NA,1382.7000000001863,TRUE,1,1382.7000000001863,0,1382.7000000001863,426,1,1.0474275919158726,1,0.7039614654908174
wacf3b96,correct,2699.7999999998137,1454.5,NA,NA,1454.5,TRUE,1,1454.5,0,1454.5,427,1,0.463357230928053,1,0.6839081188462391
wacf3b96,correct,4893.5,3493.2999999998137,NA,NA,3493.2999999998137,TRUE,1,3493.2999999998137,0,3493.2999999998137,428,1,-0.8435845503897861,1,1.0521774897030551
wacf3b96,correct,3441.2999999998137,1054.0999999996275,1829.5,NA,1829.5,FALSE,2,1054.0999999996275,1829.5,2883.5999999996275,429,0,-1.8644869432844513,1,0.6354036019422717
wacf3b96,correct,3032.7999999998137,2464,NA,NA,2464,TRUE,1,2464,0,2464,430,1,-0.3016257865496461,1,-0.35402922042188556
wacf3b96,correct,1999.199999999255,1437.2999999998137,NA,NA,1437.2999999998137,TRUE,1,1437.2999999998137,0,1437.2999999998137,431,1,0.9703201320535185,0.5,-0.5358489150323501
wacf3b96,correct,2783.600000000559,1891.7999999998137,NA,NA,1891.7999999998137,TRUE,1,1891.7999999998137,0,1891.7999999998137,434,1,1.0533131323626916,0,-1.8644869432844513
wacf3b96,correct,2659.5,1481.7000000001863,NA,NA,1481.7000000001863,TRUE,1,1481.7000000001863,0,1481.7000000001863,436,1,0.6780539021326273,1,-0.5791688089652103
wacf3b96,correct,4350.600000000559,3635.7999999998137,NA,NA,3635.7999999998137,TRUE,1,3635.7999999998137,0,3635.7999999998137,437,1,-0.18697946967120718,1,1.0327311238341152
w13c3a87,correct,7595.600000143051,1459.7999999523163,5581.800000190735,NA,5581.800000190735,FALSE,2,1459.7999999523163,5581.800000190735,7041.600000143051,438,1,-1.2068671669752427,1,0.5982104701112431
w13c3a87,correct,2955.900000095367,2417.4000000953674,NA,NA,2417.4000000953674,TRUE,1,2417.4000000953674,0,2417.4000000953674,439,1,-0.045770887786323,1,0.5010501423185623
w13c3a87,correct,2725.900000095367,2244.2000000476837,NA,NA,2244.2000000476837,TRUE,1,2244.2000000476837,0,2244.2000000476837,440,1,0.3648890390937365,1,0.5715536871463432
w13c3a87,correct,2007.8999998569489,1636.6999998092651,NA,NA,1636.6999998092651,TRUE,1,1636.6999998092651,0,1636.6999998092651,441,1,0.3310208733446223,1,0.558560977548083
w13c3a87,correct,2023.3999998569489,1712.2999999523163,NA,NA,1712.2999999523163,TRUE,1,1712.2999999523163,0,1712.2999999523163,442,1,0.6939243408354006,1,0.1194160545453315
w13c3a87,correct,2313.2000000476837,1979.7000000476837,NA,NA,1979.7000000476837,TRUE,1,1979.7000000476837,0,1979.7000000476837,443,1,-0.12203592266398706,1,0.32541750701995925
w13c3a87,correct,2786.399999856949,906.5,1400.8999998569489,NA,1400.8999998569489,FALSE,2,906.5,1400.8999998569489,2307.399999856949,444,1,-1.468876454708779,1,0.5721211345521839
w13c3a87,correct,5212.200000047684,2182,2682.100000143051,NA,2682.100000143051,FALSE,2,2182,2682.100000143051,4864.100000143051,445,1,-0.7446225817736327,1,0.40602489131880165
w13c3a87,correct,3463.199999809265,1344.8999998569489,1770.6000001430511,NA,1770.6000001430511,FALSE,2,1344.8999998569489,1770.6000001430511,3115.5,446,1,-0.8300390454066435,1,-0.13981308744856208
w13c3a87,correct,1735.7000000476835,1375.7000000476837,NA,NA,1375.7000000476837,TRUE,1,1375.7000000476837,0,1375.7000000476837,447,1,-0.06041275416236883,1,0.4336085951012417
w13c3a87,correct,2824.2999999523163,853.5,1548.3999998569489,NA,1548.3999998569489,FALSE,2,853.5,1548.3999998569489,2401.899999856949,448,1,-0.9194323545033856,1,0.5741093977251917
w13c3a87,correct,1965.9000000953672,1622.9000000953674,NA,NA,1622.9000000953674,TRUE,1,1622.9000000953674,0,1622.9000000953674,449,1,0.500535896293447,1,0.3498229813380736
w13c3a87,correct,1592.7999999523165,1270,NA,NA,1270,TRUE,1,1270,0,1270,450,1,-0.02754920188142827,1,0.7440128493623562
w13c3a87,correct,1965,1690.7999999523163,NA,NA,1690.7999999523163,TRUE,1,1690.7999999523163,0,1690.7999999523163,451,1,-0.03849871376619051,1,-0.2854643489493419
w13c3a87,correct,2252.7999999523163,1446,NA,NA,1446,TRUE,1,1446,0,1446,452,1,0.4294701130190592,1,0.43804626650371825
w13c3a87,correct,1497.7999999523165,1180.4000000953674,NA,NA,1180.4000000953674,TRUE,1,1180.4000000953674,0,1180.4000000953674,453,1,0.8761034966226614,1,0.4333362385140317
w13c3a87,correct,1640.7999999523165,1251.2000000476837,NA,NA,1251.2000000476837,TRUE,1,1251.2000000476837,0,1251.2000000476837,454,1,0.46760774807519884,1,-1.0508806025740285
w13c3a87,correct,1584.3999998569489,1226.8999998569489,NA,NA,1226.8999998569489,TRUE,1,1226.8999998569489,0,1226.8999998569489,455,1,0.3783311739907508,1,-0.61847590120448
w13c3a87,correct,3277.899999856949,1138.0999999046326,1819.5999999046326,NA,1819.5999999046326,FALSE,2,1138.0999999046326,1819.5999999046326,2957.699999809265,456,0,-4.9562110806963835,1,0.713013742322076
w68066d9,correct,4674.300000190735,1205.9000000953674,2326.2000000476837,NA,2326.2000000476837,FALSE,2,1205.9000000953674,2326.2000000476837,3532.100000143051,459,1,0.03784878716551571,1,0.4146973523943667
w68066d9,correct,5560.299999952316,1807.7000000476837,2557.4000000953674,NA,2557.4000000953674,FALSE,2,1807.7000000476837,2557.4000000953674,4365.100000143051,460,0,-2.7843819310291877,1,0.1333447752924351
w68066d9,correct,5977.200000047684,1366.2000000476837,2697.4000000953674,1105,1105,TRUE,3,2471.2000000476837,2697.4000000953674,5168.600000143051,461,1,-1.3886632277194213,0,-2.7843819310291877
w68066d9,correct,2770.2999999523163,1739.8999998569489,NA,NA,1739.8999998569489,TRUE,1,1739.8999998569489,0,1739.8999998569489,462,1,0.35004856162072656,1,0.4114595523655072
w68066d9,correct,5788.5,3314.800000190735,1472.3999998569489,NA,1472.3999998569489,FALSE,2,3314.800000190735,1472.3999998569489,4787.200000047684,463,0,-2.7843819310291877,1,0.5672693368418752
w68066d9,correct,3152.100000143051,1508.5,NA,NA,1508.5,TRUE,1,1508.5,0,1508.5,464,1,0.6612756077460744,1,0.34508286584449444
w68066d9,correct,2496,1581.5,NA,NA,1581.5,TRUE,1,1581.5,0,1581.5,465,1,0.5098952234331993,0,-2.7843819310291877
w68066d9,correct,2246.900000095367,1442.7000000476837,NA,NA,1442.7000000476837,TRUE,1,1442.7000000476837,0,1442.7000000476837,466,1,0.35930461613298775,1,0.43752939400936885
w68066d9,correct,2105.399999856949,1223.7999999523163,NA,NA,1223.7999999523163,TRUE,1,1223.7999999523163,0,1223.7999999523163,467,1,0.32340190047265505,1,0.691466083939502
w68066d9,correct,2556.400000095367,1911.3000001907349,NA,NA,1911.3000001907349,TRUE,1,1911.3000001907349,0,1911.3000001907349,468,1,-0.10227749246375004,1,0.6170083883002703
w68066d9,correct,2618.600000143051,1922.7000000476837,NA,NA,1922.7000000476837,TRUE,1,1922.7000000476837,0,1922.7000000476837,469,1,0.32969924769959946,1,0.5896631714166435
w68066d9,correct,2197.899999856949,1652.7999999523163,NA,NA,1652.7999999523163,TRUE,1,1652.7999999523163,0,1652.7999999523163,470,1,0.5189103502944247,1,0.6119888849533749
w68066d9,correct,2416.899999856949,1921.3999998569489,NA,NA,1921.3999998569489,TRUE,1,1921.3999998569489,0,1921.3999998569489,472,1,0.4208751596122054,1,0.46420482049715917
w68066d9,correct,3899.299999952316,2595.7000000476837,NA,NA,2595.7000000476837,TRUE,1,2595.7000000476837,0,2595.7000000476837,473,1,0.37160150480717097,1,0.25528951634958086
w68066d9,correct,2700.5,2102.199999809265,NA,NA,2102.199999809265,TRUE,1,2102.199999809265,0,2102.199999809265,474,1,0.1263738082100309,1,0.3034998109642434
w68066d9,correct,5821,1080.7999999523163,3850.7000000476837,NA,3850.7000000476837,FALSE,2,1080.7999999523163,3850.7000000476837,4931.5,475,1,0.6267962517018791,1,0.07568743311622807
w590723c,correct,3063.30000000156,2079.2199999995064,NA,NA,2079.2199999995064,TRUE,1,2079.2199999995064,0,2079.2199999995064,476,1,0.6379317231957176,1,0.34134898263441243
w590723c,correct,4903.834999997285,3959.869999998715,NA,NA,3959.869999998715,TRUE,1,3959.869999998715,0,3959.869999998715,477,1,0.434329801959931,1,0.115142302036863
w590723c,correct,2519.5250000033993,1959.8150000020396,NA,NA,1959.8150000020396,TRUE,1,1959.8150000020396,0,1959.8150000020396,478,1,0.7848156786483081,1,0.4856481354014291
w590723c,correct,3903.6600000036415,1335.5050000026822,1768.1049999955576,NA,1768.1049999955576,FALSE,2,1335.5050000026822,1768.1049999955576,3103.60999999824,479,0,-2.067263205467859,1,0.5463646889664494
w590723c,correct,2207.329999997514,1447.2699999969918,NA,NA,1447.2699999969918,TRUE,1,1447.2699999969918,0,1447.2699999969918,480,1,0.7486454035726319,1,0.47244745739728833
w590723c,correct,2087.829999996815,1455.6499999961816,NA,NA,1455.6499999961816,TRUE,1,1455.6499999961816,0,1455.6499999961816,481,1,0.04690030014578501,1,0.352883333153062
w590723c,correct,1815.2749999936204,1351.3499999972992,NA,NA,1351.3499999972992,TRUE,1,1351.3499999972992,0,1351.3499999972992,482,1,0.681659894639305,0,-2.067263205467859
w590723c,correct,2863.695000000065,895.6400000024587,1311.8699999977835,NA,1311.8699999977835,FALSE,2,895.6400000024587,1311.8699999977835,2207.510000000242,483,0,-2.067263205467859,1,0.6494145489181894
w590723c,correct,2239.4249999998137,1743.4349999966798,NA,NA,1743.4349999966798,TRUE,1,1743.4349999966798,0,1743.4349999966798,484,1,0.2935355912382184,1,0.614925771717311
w590723c,correct,1735.6450000006007,1231.5850000013597,NA,NA,1231.5850000013597,TRUE,1,1231.5850000013597,0,1231.5850000013597,485,1,0.5627474947571539,1,0.7359203660839483
w590723c,correct,3159.379999997327,695.305000001099,1896.1399999971036,NA,1896.1399999971036,FALSE,2,695.305000001099,1896.1399999971036,2591.4449999982025,486,0,-2.067263205467859,1,0.6495194893417464
w590723c,correct,2679.660000001546,687.6649999975925,1327.9249999978347,NA,1327.9249999978347,FALSE,2,687.6649999975925,1327.9249999978347,2015.5899999954272,487,0,-2.067263205467859,1,0.013727990498131814
w590723c,correct,3079.775000005611,1015.6950000019278,1416.1099999982398,NA,1416.1099999982398,FALSE,2,1015.6950000019278,1416.1099999982398,2431.8050000001676,489,1,-0.29869620391294915,1,0.5263668220186273
w590723c,correct,1679.559999996913,1231.6050000007963,NA,NA,1231.6050000007963,TRUE,1,1231.6050000007963,0,1231.6050000007963,490,1,0.6458036830027091,1,0.5270997172742912
w590723c,correct,2847.685000000638,823.519999998156,1520.1250000026776,NA,1520.1250000026776,FALSE,2,823.519999998156,1520.1250000026776,2343.6450000008335,491,1,-0.3399792128034146,1,0.4786397007922895
w590723c,correct,1903.525000001537,1279.4399999984307,NA,NA,1279.4399999984307,TRUE,1,1279.4399999984307,0,1279.4399999984307,492,1,0.6023258325338787,1,0.46194044001546414
w590723c,correct,1967.54499999946,1351.660000000149,NA,NA,1351.660000000149,TRUE,1,1351.660000000149,0,1351.660000000149,493,1,0.636629450603937,1,0.7200126233209413
w590723c,correct,3607.8049999995856,927.9449999957578,2039.855000002659,NA,2039.855000002659,FALSE,2,927.9449999957578,2039.855000002659,2967.7999999984168,494,1,-0.0953995599632038,1,0.2745918438142373
wf70aa66,correct,6568.900000095367,3012.4000000953674,2584,NA,2584,FALSE,2,3012.4000000953674,2584,5596.400000095367,495,1,0.6702682125965552,1,0.28970086520550486
wf70aa66,correct,6627.099999904633,6065.799999952316,NA,NA,6065.799999952316,TRUE,1,6065.799999952316,0,6065.799999952316,496,1,0.38438370744214656,1,0.8410708556646742
wf70aa66,correct,4610.399999856949,1458.5,889,1004.2999999523163,1004.2999999523163,TRUE,3,2462.7999999523163,889,3351.7999999523163,497,1,0.6439376049483867,0,-1.5649768948335117
wf70aa66,correct,3186.2000000476837,883.4000000953674,470.09999990463257,1058.4000000953674,1058.4000000953674,TRUE,3,1941.8000001907349,470.09999990463257,2411.9000000953674,498,1,0.7862690990796637,1,0.6711386832662628
wf70aa66,correct,1843.7000000476835,1577.3999998569489,NA,NA,1577.3999998569489,TRUE,1,1577.3999998569489,0,1577.3999998569489,499,1,0.8225391798371632,0,-1.5649768948335117
wf70aa66,correct,2728.100000143051,778.4000000953674,1720.0999999046326,NA,1720.0999999046326,FALSE,2,778.4000000953674,1720.0999999046326,2498.5,500,1,0.6754865815990623,1,0.5775651905603749
wf70aa66,correct,1922.6999998092651,1445.3999998569489,NA,NA,1445.3999998569489,TRUE,1,1445.3999998569489,0,1445.3999998569489,501,1,0.6362028773134029,1,0.6350671372876484
wf70aa66,correct,2141.100000143051,542.2999999523163,1361.5,NA,1361.5,FALSE,2,542.2999999523163,1361.5,1903.7999999523163,502,0,-1.5649768948335117,1,0.28042908358122376
wf70aa66,correct,2366.599999904633,578,1456.4000000953674,NA,1456.4000000953674,FALSE,2,578,1456.4000000953674,2034.4000000953674,504,0,-1.5649768948335117,1,0.4993596427715255
wf70aa66,correct,1632.7000000476835,1269.7999999523163,NA,NA,1269.7999999523163,TRUE,1,1269.7999999523163,0,1269.7999999523163,505,1,0.7247460420666498,1,-0.07869298964584001
wf70aa66,correct,3118,1667.5,1168.5,NA,1168.5,FALSE,2,1667.5,1168.5,2836,506,1,0.26203363033140414,1,0.6726914219951582
wf70aa66,correct,2109.600000143051,653.6000001430511,1070.0999999046326,NA,1070.0999999046326,FALSE,2,653.6000001430511,1070.0999999046326,1723.7000000476837,507,0,-1.5649768948335117,1,0.8039785388764178
wf70aa66,correct,3820.700000047684,870.8999998569489,1072.7000000476837,1627.4000000953674,1627.4000000953674,TRUE,3,2498.2999999523163,1072.7000000476837,3571,509,1,0.636741723886842,0,-1.5649768948335117
wf70aa66,correct,2514.5,558,1703.7999999523163,NA,1703.7999999523163,FALSE,2,558,1703.7999999523163,2261.7999999523163,510,0,-1.5649768948335117,1,0.7091653235123834
wf70aa66,correct,2345.699999809265,1209.5,NA,NA,1209.5,TRUE,1,1209.5,0,1209.5,512,1,0.7329125414840774,1,0.7318672405098544
wf70aa66,correct,1472.7000000476835,1214.8000001907349,NA,NA,1214.8000001907349,TRUE,1,1214.8000001907349,0,1214.8000001907349,513,1,0.7358371424911198,1,0.6724086100628749
w8112bd2,correct,6444.299999999814,1060.6000000005588,1825.2999999998137,1141.2000000001863,1360.7999999998137,TRUE,4,2201.800000000745,3186.0999999996275,5387.9000000003725,514,1,1.2779501381088798,1,0.7736798548721074
w8112bd2,correct,3949.5,996.5999999996275,616.5,1312,1312,TRUE,3,2308.5999999996275,616.5,2925.0999999996275,515,1,1.1862722378542618,0,-0.9161482580948516
w8112bd2,correct,4359.399999999441,908.5999999996275,793.7000000001863,1729.5,1729.5,TRUE,3,2638.0999999996275,793.7000000001863,3431.7999999998137,516,1,0.9723079364938038,0,-0.9161482580948516
w8112bd2,correct,4613.4000000003725,906.4000000003725,1056.5999999996275,1551.7000000001863,1551.7000000001863,TRUE,3,2458.100000000559,1056.5999999996275,3514.7000000001863,517,1,1.341394241195314,1,0.8864467110719675
w8112bd2,correct,3523.5,915.5,632.9000000003725,1088,1088,TRUE,3,2003.5,632.9000000003725,2636.4000000003725,518,1,1.186199679434597,0,-0.9161482580948516
w8112bd2,correct,4743.199999999255,786.0999999996275,2875.7000000001863,NA,2875.7000000001863,FALSE,2,786.0999999996275,2875.7000000001863,3661.7999999998137,519,0,-0.9161482580948516,1,0.9305948665714102
w8112bd2,correct,2922.7999999998137,836.0999999996275,558.2000000001863,1001.1000000005588,1001.1000000005588,TRUE,3,1837.2000000001863,558.2000000001863,2395.4000000003725,521,1,1.141915361123388,0,-0.9161482580948516
w8112bd2,correct,6377.5999999996275,939.2999999998137,4544.0999999996275,NA,4544.0999999996275,FALSE,2,939.2999999998137,4544.0999999996275,5483.399999999441,522,0,-0.9161482580948516,1,1.000393076291824
w8112bd2,correct,3643.900000000373,853.5,1961.2000000001863,NA,1961.2000000001863,FALSE,2,853.5,1961.2000000001863,2814.7000000001863,523,0,-0.9161482580948516,1,1.232635360781974
w8112bd2,correct,3257.5999999996275,838.5999999996275,599.2999999998137,952.9000000003725,952.9000000003725,TRUE,3,1791.5,599.2999999998137,2390.7999999998137,526,1,1.0220866788611285,0,-0.9161482580948516
w8112bd2,correct,4039.2999999998137,869.0999999996275,2353.2000000001863,NA,2353.2000000001863,FALSE,2,869.0999999996275,2353.2000000001863,3222.2999999998137,527,0,-0.9161482580948516,1,1.1972589824180233
w8112bd2,correct,3532.7000000001863,952.5,673.7000000001863,985,985,TRUE,3,1937.5,673.7000000001863,2611.2000000001863,528,1,0.9283408047770891,0,-0.9161482580948516
w8112bd2,correct,3198.0999999996275,750.2000000001863,334.59999999962747,1227.2000000001863,1227.2000000001863,TRUE,3,1977.4000000003725,334.59999999962747,2312,530,1,1.2965322472990275,1,1.0547150403362782
w8112bd2,correct,2848.2999999998137,899.2000000001863,535.5,942.7000000001863,942.7000000001863,TRUE,3,1841.9000000003725,535.5,2377.4000000003725,532,1,0.8354456690572367,0,-0.9161482580948516
w1b9a803,correct,3823.600000023842,1127.4000000953674,1984.5,NA,1984.5,FALSE,2,1127.4000000953674,1984.5,3111.9000000953674,533,0.5,-0.6056988079822239,1,0.9684996915342816
w1b9a803,correct,3959.899999976158,727.5999999046326,456.2000000476837,1775.6000000238419,1775.6000000238419,TRUE,3,2503.1999999284744,456.2000000476837,2959.399999976158,534,0.5,0.5123973575993791,1,1.1822013364398025
w1b9a803,correct,3079.5,1071.6999999284744,751.9000000953674,1016,1016,TRUE,3,2087.6999999284744,751.9000000953674,2839.600000023842,536,0.5,0.28542804227023993,0,-0.8157631853870367
w1b9a803,correct,3831.700000047684,719.9000000953674,2079.5,NA,2079.5,FALSE,2,719.9000000953674,2079.5,2799.4000000953674,537,0.5,-0.24425785077128523,0.5,-0.5559484340345211
w1b9a803,correct,3096,1103.8000000715256,495.60000002384186,1000.5,1000.5,TRUE,3,2104.3000000715256,495.60000002384186,2599.9000000953674,538,1,1.4873496799638202,0,-0.8157631853870367
w1b9a803,correct,3159.600000023842,760,1919.6000000238419,NA,1919.6000000238419,FALSE,2,760,1919.6000000238419,2679.600000023842,539,0,-0.8157631853870367,1,1.6258496382172503
w1b9a803,correct,2311.600000023842,599.3000000715256,1312.0999999046326,NA,1312.0999999046326,FALSE,2,599.3000000715256,1312.0999999046326,1911.3999999761581,540,0.5,-0.5421902695341918,1,1.8165715510684775
w1b9a803,correct,6775.399999976158,1063.1999999284744,863.7000000476837,4600.199999928474,4600.199999928474,TRUE,3,5663.399999856949,863.7000000476837,6527.099999904633,542,1,0.3516954054706982,0,-0.8157631853870367
w1b9a803,correct,2983.7999999523163,775.6999999284744,1680.3000000715256,NA,1680.3000000715256,FALSE,2,775.6999999284744,1680.3000000715256,2456,544,0.5,-0.6565755010499774,0.5,-0.3667189642288902
w1b9a803,correct,2895.6999999284744,951.7999999523163,343.8000000715256,1224.0999999046326,1224.0999999046326,TRUE,3,2175.899999856949,343.8000000715256,2519.6999999284744,545,1,1.5468003367058236,0,-0.8157631853870367
w1b9a803,correct,2327.7000000476837,463.90000009536743,543.5,248.19999992847443,839.8999999761581,FALSE,4,712.1000000238419,1383.3999999761581,2095.5,546,0.5,-0.5021977686739384,1,1.6633896618717194
w1b9a803,correct,7935.599999904633,783.5999999046326,896.5,935.5,824.1999999284744,TRUE,5,2543.299999833107,4840.400000095367,7383.699999928474,547,0.5,0.31962651878959675,0,-0.8157631853870367
w1b9a803,correct,2168.2000000476837,575.8000000715256,367.89999997615814,848.2999999523163,848.2999999523163,TRUE,3,1424.1000000238419,367.89999997615814,1792,550,1,1.4422031612385404,0,-0.8157631853870367
w1b9a803,correct,2776.1999999284744,639.7999999523163,735.8999999761581,191.90000009536743,832.2999999523163,FALSE,4,831.7000000476837,1568.1999999284744,2399.899999976158,551,0,-0.8157631853870367,1,1.3067558434677704
w9cf18bb,correct,6975.199999999255,5871.199999999255,NA,NA,5871.199999999255,TRUE,1,5871.199999999255,0,5871.199999999255,555,1,0.8574796357533047,0,-1.1332989828291087
w9cf18bb,correct,5838.699999999255,4756.800000000745,NA,NA,4756.800000000745,TRUE,1,4756.800000000745,0,4756.800000000745,556,1,0.8034299060330826,0,-1.1332989828291087
w9cf18bb,correct,3846.699999999255,688.5999999977648,2080.900000002235,NA,2080.900000002235,FALSE,2,688.5999999977648,2080.900000002235,2769.5,557,0,-1.1332989828291087,1,1.368587240846632
w9cf18bb,correct,4767.099999997765,751.3999999985099,2897.699999999255,NA,2897.699999999255,FALSE,2,751.3999999985099,2897.699999999255,3649.099999997765,558,0,-1.1332989828291087,0.5,-0.018335244785798024
w9cf18bb,correct,6239.5,655.5,816,1968,2000,FALSE,4,2623.5,2816,5439.5,559,1,0.13744655868810018,1,1.2357058505873963
w9cf18bb,correct,5219.300000000745,719.6999999992549,2000.1000000014901,NA,2000.1000000014901,FALSE,2,719.6999999992549,2000.1000000014901,2719.800000000745,561,0,-1.1332989828291087,1,1.182429314583995
w9cf18bb,correct,4799.699999999255,622.5999999977648,1903.5,NA,1903.5,FALSE,2,622.5999999977648,1903.5,2526.099999997765,562,1,0.1824375715861262,1,0.8490786971125464
w9cf18bb,correct,4169.39999999851,632.7999999970198,2287.800000000745,NA,2287.800000000745,FALSE,2,632.7999999970198,2287.800000000745,2920.599999997765,563,0.5,-0.007202490312206446,1,0.9554483293244732
w9cf18bb,correct,4815.10000000149,485.69999999925494,1336.800000000745,2384.10000000149,2384.10000000149,TRUE,3,2869.800000000745,1336.800000000745,4206.60000000149,564,1,0.7927863204030368,0,-1.1332989828291087
w9cf18bb,correct,4262.099999997765,287.0999999977648,2768.2000000029802,NA,2768.2000000029802,FALSE,2,287.0999999977648,2768.2000000029802,3055.300000000745,566,1,1.0837340209515167,1,0.9048132603573247
w9cf18bb,correct,5599.60000000149,447.30000000074506,1440.800000000745,2671.2999999970198,2671.2999999970198,TRUE,3,3118.599999997765,1440.800000000745,4559.39999999851,568,1,0.889263486459335,1,1.1778833849099108
w9cf18bb,correct,3919.199999999255,238,865.0999999977648,2207.900000002235,2207.900000002235,TRUE,3,2445.900000002235,865.0999999977648,3311,569,1,1.1260561853245417,1,0.8479794803576906
w9cf18bb,correct,4857.60000000149,185.60000000149012,1024,2592.10000000149,2592.10000000149,TRUE,3,2777.7000000029802,1024,3801.7000000029802,570,1,0.7806500079644784,0,-1.1332989828291087
waa14749,correct,6141,1851,2198,1318,1318,TRUE,3,3169,2198,5367,571,1,0.24741632244153924,0.5,-2.1553284401555204
waa14749,correct,6659,1133,4838,NA,4838,FALSE,2,1133,4838,5971,572,1,0.17182971302925845,1,0.4099756675290941
waa14749,correct,11739,1223,1109,5105,2398,TRUE,5,8726,2091,10817,573,1,0.6471404651831169,1,0.5485455291359231
waa14749,correct,4754,1170,841,1710,1710,TRUE,3,2880,841,3721,575,1,0.449438579693196,1,0.9761506350401864
waa14749,correct,4910,1100,923,2056,2056,TRUE,3,3156,923,4079,576,1,0.5335581503651435,1,0.7598462223492941
waa14749,correct,4399,995,2647,NA,2647,FALSE,2,995,2647,3642,577,0,-3.5054626121156525,1,-0.7818167156046009
waa14749,correct,5052,1215,2980,NA,2980,FALSE,2,1215,2980,4195,578,1,0.017147928051283116,1,-0.18139887893108883
waa14749,correct,4660,1195.0000000002328,1179.9999999997672,1992,1992,TRUE,3,3187.000000000233,1179.9999999997672,4367,579,1,0.5113413638680645,1,-0.17547959497144122
waa14749,correct,7601,3232,760,2736,2736,TRUE,3,5968,760,6728,580,1,-0.4996271985086416,1,0.15412043560380212
waa14749,correct,4025,1389,1879,NA,1879,FALSE,2,1389,1879,3268,581,1,0.1803712190492271,1,0.6789711073234137
waa14749,correct,4329,1244,1260,1326,1326,TRUE,3,2570,1260,3830,582,1,0.24838704584713117,1,-1.1920663260528983
waa14749,correct,3770,1286,2022,NA,2022,FALSE,2,1286,2022,3308,583,1,-0.2978532235114335,1,0.6148343713630319
waa14749,correct,4060,1073,2455,NA,2455,FALSE,2,1073,2455,3528,584,1,0.2966410662274426,1,0.455025632735268
waa14749,correct,4112,1050,1028,1189,1189,TRUE,3,2239,1028,3267,585,1,0.6231304990146858,1,0.1768662185007172
waa14749,correct,4352,1013,2915,NA,2915,FALSE,2,1013,2915,3928,586,1,0.2622685928152406,1,0.135660819353517
waa14749,correct,3231,912,1968,NA,1968,FALSE,2,912,1968,2880,587,1,0.4490335743273898,1,0.779532144038193
waa14749,correct,3140,814,1903,NA,1903,FALSE,2,814,1903,2717,588,1,0.5509780860601609,1,0.3928668269096884
waa14749,correct,4035,790.0000000002328,2362.999999999767,NA,2362.999999999767,FALSE,2,790.0000000002328,2362.999999999767,3153,589,0,-3.5054626121156525,1,0.19710512429426166
w476c44b,correct,2970.9000000059605,1710.2000000029802,NA,NA,1710.2000000029802,TRUE,1,1710.2000000029802,0,1710.2000000029802,590,1,1.767469122575441,1,0.7421005456762544
w476c44b,correct,2964.4000000059605,2164.5999999940395,NA,NA,2164.5999999940395,TRUE,1,2164.5999999940395,0,2164.5999999940395,591,1,2.1525177022858464,0.5,-0.5693261080185752
w476c44b,correct,7352.20000000298,1330.5,1411.7999999970198,2728.2999999970198,2728.2999999970198,TRUE,3,4058.7999999970198,1411.7999999970198,5470.5999999940395,593,1,0.9849335378014847,0.5,-0.6113808054190556
w476c44b,correct,2569.79999999702,1646.0999999940395,NA,NA,1646.0999999940395,TRUE,1,1646.0999999940395,0,1646.0999999940395,595,1,0.6266777812675615,0.5,-0.38623908852842
w476c44b,correct,3318.70000000298,611.2000000029802,362.3999999910593,1082.2999999970198,1082.2999999970198,TRUE,3,1693.5,362.3999999910593,2055.8999999910593,596,1,0.5096579939711261,0,-1.195758742830829
w476c44b,correct,2445.70000000298,1389,NA,NA,1389,TRUE,1,1389,0,1389,599,1,0.6062686671145467,1,0.1303284201168759
w476c44b,correct,2642.800000011921,1702.800000011921,NA,NA,1702.800000011921,TRUE,1,1702.800000011921,0,1702.800000011921,600,1,1.5301009260120348,1,-0.725420100602306
w476c44b,correct,4595.20000000298,1082.1000000089407,1540.0999999940395,1566.5999999940395,1566.5999999940395,TRUE,3,2648.7000000029802,1540.0999999940395,4188.79999999702,601,0.5,-0.9768856046032031,1,-0.09675207637177959
w476c44b,correct,5225.20000000298,933.2000000029802,632.2999999970198,2992.2000000029802,2992.2000000029802,TRUE,3,3925.4000000059605,632.2999999970198,4557.70000000298,602,1,0.24051128436121685,0,-1.195758742830829
w476c44b,correct,5034.0999999940395,1693.0999999940395,1256.9000000059605,1365.9000000059605,1365.9000000059605,TRUE,3,3059,1256.9000000059605,4315.9000000059605,604,1,-0.3844659175144707,1,-0.31454668188370843
w476c44b,correct,1838.800000011921,1262.5,NA,NA,1262.5,TRUE,1,1262.5,0,1262.5,606,1,1.959558524033888,0,-1.195758742830829
w9679584,correct,10083.400000000373,1614.4000000003725,3430.699999999255,421,2469.4000000003725,FALSE,6,2427.800000000745,6215.0999999996275,8642.900000000373,609,1,-0.46217275795495166,1,-0.04426500933387736
w9679584,correct,3794.800000000745,1037.4000000003725,1728.2000000001863,NA,1728.2000000001863,FALSE,2,1037.4000000003725,1728.2000000001863,2765.600000000559,610,1,0.4699250096618321,1,0.7364743445545667
w9679584,correct,4296.899999999441,1159.7999999998137,2244.7000000001863,NA,2244.7000000001863,FALSE,2,1159.7999999998137,2244.7000000001863,3404.5,611,1,0.07478724572548882,1,0.05506899038802027
w9679584,correct,3642.5,716.9000000003725,2080.4000000003725,NA,2080.4000000003725,TRUE,2,716.9000000003725,2080.4000000003725,2797.300000000745,612,1,0.7339003658470982,0.5,-1.416944010678974
w9679584,correct,3044,633.7000000001863,1692.2999999998137,NA,1692.2999999998137,TRUE,2,633.7000000001863,1692.2999999998137,2326,613,1,0.6839265554480854,1,0.6274729285543605
w9679584,correct,4485.5999999996275,1627.8999999994412,1876.2999999998137,NA,1876.2999999998137,TRUE,2,1627.8999999994412,1876.2999999998137,3504.199999999255,614,1,0.5344386161155527,1,-0.48577344948332424
w9679584,correct,2601.5,1723.5,NA,NA,1723.5,TRUE,1,1723.5,0,1723.5,615,1,0.6470467341322315,1,0.16658305339146318
w9679584,correct,3826.300000000745,1396.800000000745,1699.0999999996275,NA,1699.0999999996275,FALSE,2,1396.800000000745,1699.0999999996275,3095.9000000003725,616,1,-0.18122592614490746,1,0.2688975489661873
w9679584,correct,2275.0999999996275,1829.2999999998137,NA,NA,1829.2999999998137,TRUE,1,1829.2999999998137,0,1829.2999999998137,617,1,0.6493350808423813,0.5,-2.587186489324091
w9679584,correct,2162,1859.2999999998137,NA,NA,1859.2999999998137,TRUE,1,1859.2999999998137,0,1859.2999999998137,618,1,0.6384224014502381,0.5,-1.6930714631937773
w9679584,correct,2048.2000000001863,1682.5,NA,NA,1682.5,TRUE,1,1682.5,0,1682.5,619,1,0.27468201704950956,1,0.2806461384222739
w9679584,correct,3538,1024.5999999996275,1551.7000000001863,NA,1551.7000000001863,FALSE,2,1024.5999999996275,1551.7000000001863,2576.2999999998137,620,0,-3.0725456981534816,1,0.764059688188164
w9679584,correct,2008,1347.1000000005588,NA,NA,1347.1000000005588,TRUE,1,1347.1000000005588,0,1347.1000000005588,621,1,0.5261517149333285,1,-0.016866598651929184
w9679584,correct,1939.7000000001865,1431.2999999998137,NA,NA,1431.2999999998137,TRUE,1,1431.2999999998137,0,1431.2999999998137,622,1,0.578875558982171,1,0.336037150654437
w9679584,correct,4337.0999999996275,3345.5,NA,NA,3345.5,TRUE,1,3345.5,0,3345.5,623,1,0.46692504166959975,1,0.4173989374555866
w9679584,correct,1756.5999999996277,1466.699999999255,NA,NA,1466.699999999255,TRUE,1,1466.699999999255,0,1466.699999999255,624,1,0.4642490994163547,1,0.4559259984935489
w9679584,correct,2514.300000000745,2249.100000000559,NA,NA,2249.100000000559,TRUE,1,2249.100000000559,0,2249.100000000559,625,1,-0.5758968492469128,1,-0.020048006352743234
w9679584,correct,1711.7000000001865,1274.7999999998137,NA,NA,1274.7999999998137,TRUE,1,1274.7999999998137,0,1274.7999999998137,626,1,0.5423262054214112,1,0.715493658846702
w9679584,correct,2240.9000000003725,1672.2000000001863,NA,NA,1672.2000000001863,TRUE,1,1672.2000000001863,0,1672.2000000001863,627,1,0.49360163938132573,1,0.7059895237744435
wf9f42b6,correct,6017.599999904633,537.1999998092651,2823.100000143051,NA,2823.100000143051,FALSE,2,537.1999998092651,2823.100000143051,3360.2999999523163,630,0,-0.693811124355921,1,1.3866156179543294
wf9f42b6,correct,3609.5,2389.2999999523163,NA,NA,2389.2999999523163,TRUE,1,2389.2999999523163,0,2389.2999999523163,631,1,1.5956463452970693,1,1.1964932334957659
wf9f42b6,correct,3510.099999904633,2760.2000000476837,NA,NA,2760.2000000476837,TRUE,1,2760.2000000476837,0,2760.2000000476837,632,0.5,0.4562038609466708,0,-0.693811124355921
wf9f42b6,correct,3888.800000190735,1261.5,1588.3000001907349,NA,1588.3000001907349,FALSE,2,1261.5,1588.3000001907349,2849.800000190735,633,0,-0.693811124355921,1,1.6458961052319228
wf9f42b6,correct,4287.299999952316,3428.7999999523163,NA,NA,3428.7999999523163,TRUE,1,3428.7999999523163,0,3428.7999999523163,634,0.5,0.45049125869307033,0,-0.693811124355921
wf9f42b6,correct,2647.399999856949,1773.8999998569489,NA,NA,1773.8999998569489,TRUE,1,1773.8999998569489,0,1773.8999998569489,637,0.5,0.35167144117535815,1,1.5535781507160695
wf9f42b6,correct,3962.5,1097.8999998569489,1788.5,NA,1788.5,FALSE,2,1097.8999998569489,1788.5,2886.399999856949,639,0,-0.693811124355921,1,1.4244578379313215
wf9f42b6,correct,2986.600000143051,1956,NA,NA,1956,TRUE,1,1956,0,1956,642,1,1.7501860916108378,0,-0.693811124355921
wf9f42b6,correct,2388.699999809265,1460,NA,NA,1460,TRUE,1,1460,0,1460,644,1,1.3531280277253062,0,-0.693811124355921
wf9f42b6,correct,2857.5,1382.6000001430511,NA,NA,1382.6000001430511,TRUE,1,1382.6000001430511,0,1382.6000001430511,645,1,1.4529071019795732,1,1.8488287255136078
we314076,correct,2625.5999999940395,1451.2000000029802,NA,NA,1451.2000000029802,TRUE,1,1451.2000000029802,0,1451.2000000029802,648,1,0.887647069776321,0,-1.2600503608109992
we314076,correct,2553.5999999940395,1596.3999999910593,NA,NA,1596.3999999910593,TRUE,1,1596.3999999910593,0,1596.3999999910593,649,1,0.4171751045615615,0,-1.2600503608109992
we314076,correct,2168.5,1324.5,NA,NA,1324.5,TRUE,1,1324.5,0,1324.5,652,1,1.0292296494602686,1,0.1402567867559916
we314076,correct,2080,1610.5,NA,NA,1610.5,TRUE,1,1610.5,0,1610.5,653,1,0.7368735285059808,1,0.168885388797083
we314076,correct,2053.1000000089407,1447.1000000089407,NA,NA,1447.1000000089407,TRUE,1,1447.1000000089407,0,1447.1000000089407,654,1,0.9173772016419802,1,0.9164131636544676
we314076,correct,1756.7000000029802,1312.7999999970198,NA,NA,1312.7999999970198,TRUE,1,1312.7999999970198,0,1312.7999999970198,655,1,1.070276122542488,1,0.5795340754365581
we314076,correct,2176.5,1826.199999988079,NA,NA,1826.199999988079,TRUE,1,1826.199999988079,0,1826.199999988079,658,1,0.4119307187953054,1,0.7382547501636503
we314076,correct,1713.6000000089407,1302.5,NA,NA,1302.5,TRUE,1,1302.5,0,1302.5,660,1,1.1452757831265357,0,-1.2600503608109992
we314076,correct,2727.3999999910593,2280.3999999910593,NA,NA,2280.3999999910593,TRUE,1,2280.3999999910593,0,2280.3999999910593,661,0.5,-0.04211512896493108,0,-1.2600503608109992
we314076,correct,1794.4000000059605,1349.300000011921,NA,NA,1349.300000011921,TRUE,1,1349.300000011921,0,1349.300000011921,662,1,1.0220451848683763,0,-1.2600503608109992
we314076,correct,2735.5999999940395,2117.5999999940395,NA,NA,2117.5999999940395,TRUE,1,2117.5999999940395,0,2117.5999999940395,663,0.5,-0.25243224961460525,0,-1.2600503608109992
we314076,correct,2095.800000011921,1637,NA,NA,1637,TRUE,1,1637,0,1637,665,1,1.1344441646043066,1,1.161776514870121
wb9950e8,correct,5439.200000047684,3495.5,NA,NA,3495.5,TRUE,1,3495.5,0,3495.5,668,1,0.5954037126062044,0,-1.1611206755899302
wb9950e8,correct,5271.199999928474,2927.1999999284744,NA,NA,2927.1999999284744,TRUE,1,2927.1999999284744,0,2927.1999999284744,669,1,0.8601853532884789,0,-1.1611206755899302
wb9950e8,correct,3815.299999952316,2911.600000023842,NA,NA,2911.600000023842,TRUE,1,2911.600000023842,0,2911.600000023842,670,1,0.9888273056140123,0,-1.1611206755899302
wb9950e8,correct,3247.2999999523163,2703.2999999523163,NA,NA,2703.2999999523163,TRUE,1,2703.2999999523163,0,2703.2999999523163,671,1,0.9199922780361981,0,-1.1611206755899302
wb9950e8,correct,2759,1959.1000000238419,NA,NA,1959.1000000238419,TRUE,1,1959.1000000238419,0,1959.1000000238419,672,0.5,-0.16449306445305079,1,0.5038191318806083
wb9950e8,correct,2039.1999999284744,1575.1999999284744,NA,NA,1575.1999999284744,TRUE,1,1575.1999999284744,0,1575.1999999284744,673,1,0.957431691341476,1,0.5584319251182619
wb9950e8,correct,1983.1999999284744,1519.1000000238419,NA,NA,1519.1000000238419,TRUE,1,1519.1000000238419,0,1519.1000000238419,674,1,0.9269537501045156,1,1.0942281362292938
wb9950e8,correct,1855.399999976158,1423.3000000715256,NA,NA,1423.3000000715256,TRUE,1,1423.3000000715256,0,1423.3000000715256,676,1,0.8019896055016009,0,-1.1611206755899302
wb9950e8,correct,2438.899999976158,1614.8999999761581,NA,NA,1614.8999999761581,TRUE,1,1614.8999999761581,0,1614.8999999761581,679,1,0.8360188709242263,0,-1.1611206755899302
wb9950e8,correct,1807.3000000715256,1423.7000000476837,NA,NA,1423.7000000476837,TRUE,1,1423.7000000476837,0,1423.7000000476837,681,1,1.0471109862103576,0,-1.1611206755899302
wb9950e8,correct,1639.3000000715256,1255.7000000476837,NA,NA,1255.7000000476837,TRUE,1,1255.7000000476837,0,1255.7000000476837,682,1,1.0167538735574957,1,1.1912246165944127
wb9950e8,correct,5431,1559.2999999523163,2951.7000000476837,NA,2951.7000000476837,FALSE,2,1559.2999999523163,2951.7000000476837,4511,683,0,-1.1611206755899302,1,0.8377461325734704
wb9950e8,correct,2127.2000000476837,1631.2999999523163,NA,NA,1631.2999999523163,TRUE,1,1631.2999999523163,0,1631.2999999523163,684,1,0.7608104961127994,1,1.0102878398632518
wcf3842a,correct,1771.9000000953674,1374.7999999523163,NA,NA,1374.7999999523163,TRUE,1,1374.7999999523163,0,1374.7999999523163,686,1,1.0589346389173089,1,1.2988293256006787
wcf3842a,correct,6055,4474.400000095367,1193.8999998569489,NA,1193.8999998569489,FALSE,2,4474.400000095367,1193.8999998569489,5668.299999952316,687,1,-0.8304438875981442,1,1.4109518208052088
wcf3842a,correct,2363.099999904633,336.5,724.5999999046326,1103.4000000953674,1103.4000000953674,TRUE,3,1439.9000000953674,724.5999999046326,2164.5,688,0.5,-0.8128716831197214,0.5,-0.30264244005041574
wcf3842a,correct,2355.900000095367,2113.9000000953674,NA,NA,2113.9000000953674,TRUE,1,2113.9000000953674,0,2113.9000000953674,689,1,1.3233855339058682,1,1.5096271523274012
wcf3842a,correct,2972.800000190735,1452.5,1252,NA,1252,FALSE,2,1452.5,1252,2704.5,690,0,-1.5979951488315125,1,0.015133661490375538
wcf3842a,correct,2860.300000190735,1146.8000001907349,1392.6999998092651,NA,1392.6999998092651,FALSE,2,1146.8000001907349,1392.6999998092651,2539.5,692,0.5,-1.0289916196866475,1,0.3390568193264728
wcf3842a,correct,2011.2999999523165,1484.1000001430511,NA,NA,1484.1000001430511,TRUE,1,1484.1000001430511,0,1484.1000001430511,693,0.5,-0.37752998090116685,1,0.5566700124473511
wcf3842a,correct,3004.2999999523163,897.7000000476837,1668.1999998092651,NA,1668.1999998092651,FALSE,2,897.7000000476837,1668.1999998092651,2565.899999856949,694,0.5,-0.8119849676071162,1,0.19037938895538467
wcf3842a,correct,3663.899999856949,2123,1274.2999999523163,NA,1274.2999999523163,FALSE,2,2123,1274.2999999523163,3397.2999999523163,695,0.5,-0.42623369890144175,1,0.4669362955761624
wcf3842a,correct,2640,1243.5999999046326,1169.7000000476837,NA,1169.7000000476837,FALSE,2,1243.5999999046326,1169.7000000476837,2413.2999999523163,697,1,0.16663096158450572,1,1.591709317108633
wcf3842a,correct,3533.7999999523163,3314.100000143051,NA,NA,3314.100000143051,TRUE,1,3314.100000143051,0,3314.100000143051,698,0.5,-0.6661030503690032,0,-1.5979951488315125
wcf3842a,correct,1560.2000000476835,1269.7000000476837,NA,NA,1269.7000000476837,TRUE,1,1269.7000000476837,0,1269.7000000476837,699,1,1.1838959737050487,1,0.4994336847454287
wcf3842a,correct,1638.9000000953674,1365.8000001907349,NA,NA,1365.8000001907349,TRUE,1,1365.8000001907349,0,1365.8000001907349,700,1,1.2515614742555046,1,-1.156786127330111
wcf3842a,correct,2164.600000143051,1835,NA,NA,1835,TRUE,1,1835,0,1835,701,1,1.009156816476995,1,0.6651413116966277
wcf3842a,correct,2566.800000190735,2231.300000190735,NA,NA,2231.300000190735,TRUE,1,2231.300000190735,0,2231.300000190735,702,1,0.045520910000252976,1,-0.7138674748066206
wcf3842a,correct,2893.400000095367,969.7000000476837,1529.1000001430511,NA,1529.1000001430511,FALSE,2,969.7000000476837,1529.1000001430511,2498.800000190735,703,1,-0.2748226494875845,1,0.7432277597435467
w5b50d43,correct,3969,3718,NA,NA,3718,TRUE,1,3718,0,3718,704,1,0.8778781722744431,0,-0.9284954982213335
w5b50d43,correct,3612,678,2177,NA,2177,FALSE,2,678,2177,2855,705,0,-0.9284954982213335,1,1.2373303283603871
w5b50d43,correct,4918.000000000116,2164,1788,NA,1788,FALSE,2,2164,1788,3952,706,0,-0.9284954982213335,1,1.3129926050990137
w5b50d43,correct,3874,1731,1606,NA,1606,FALSE,2,1731,1606,3337,707,0,-0.9284954982213335,1,0.9479176504734651
w5b50d43,correct,4246,851.0000000001164,2734.9999999998836,NA,2734.9999999998836,FALSE,2,851.0000000001164,2734.9999999998836,3586,708,0,-0.9284954982213335,1,1.161024187700118
w5b50d43,correct,3709,945,771,804,804,TRUE,3,1749,771,2520,709,1,0.9307263672282166,0,-0.9284954982213335
w5b50d43,correct,3767,1419,462,1378.0000000001164,1378.0000000001164,TRUE,3,2797.0000000001164,462,3259.0000000001164,710,1,1.158223135139948,1,1.211837700572142
w5b50d43,correct,1894,1473,NA,NA,1473,TRUE,1,1473,0,1473,711,1,1.0495078842450383,0,-0.9284954982213335
w5b50d43,correct,1749,1445,NA,NA,1445,TRUE,1,1445,0,1445,712,1,1.1749328992557169,0,-0.9284954982213335
w5b50d43,correct,2993,2196,NA,NA,2196,TRUE,1,2196,0,2196,714,1,0.9860949249711255,0,-0.9284954982213335
w5b50d43,correct,6518,3748,2032,NA,2032,FALSE,2,3748,2032,5780,715,0,-0.9284954982213335,1,0.7063580134271789
w5b50d43,correct,2677,1700.0000000001164,NA,NA,1700.0000000001164,TRUE,1,1700.0000000001164,0,1700.0000000001164,716,1,1.0495338072128682,1,1.1756713962443102
w5b50d43,correct,1996.9999999998836,1519,NA,NA,1519,TRUE,1,1519,0,1519,718,1,0.45869496221712386,1,0.9668607276074105
w5b50d43,correct,3156,825,1964,NA,1964,FALSE,2,825,1964,2789,719,0,-0.9284954982213335,1,0.6877518117278948
w5b50d43,correct,2608,865.0000000001164,1498.9999999998836,NA,1498.9999999998836,FALSE,2,865.0000000001164,1498.9999999998836,2364,720,0,-0.9284954982213335,1,1.205646677539094
w5b50d43,correct,2506,620,1646,NA,1646,FALSE,2,620,1646,2266,722,0,-0.9284954982213335,1,1.1994222113524817
wb28da9b,correct,4656,927,2024.5999999977648,760.1999999992549,760.1999999992549,TRUE,3,1687.199999999255,2024.5999999977648,3711.7999999970198,723,1,0.3464710196727592,1,0.5081466407309329
wb28da9b,correct,3143.800000000745,823.6999999992549,2096.300000000745,NA,2096.300000000745,FALSE,2,823.6999999992549,2096.300000000745,2920,724,1,0.4232535211200268,1,0.4128738745972184
