wid,response_type,raw_rt,first_pres_time,second_pres_time,third_pres_time,last_pres_time,choose_first,n_pres,total_first,total_second,rt,trial_id,pretest_accuracy_first,strength_first,pretest_accuracy_second,strength_second
wf1e76ec,correct,7738.599999904633,741.2999999523163,559.5,2,2699.100000143051,FALSE,8,1443.8999998569489,4233.000000238419,5676.900000095367,1,0,-1.6956042711324426,1,0.9621337341278817
wf1e76ec,intrusion,3396.699999809265,309.19999980926514,361.80000019073486,2398.0999999046326,2398.0999999046326,TRUE,3,2707.2999997138977,361.80000019073486,3069.0999999046326,2,0,-1.6956042711324426,0,-1.6956042711324426
wf1e76ec,correct,5647.600000143051,1735.9000000953674,735.9000000953674,264,468.2999999523163,TRUE,5,2468.2000000476837,1169.2000000476837,3637.4000000953674,3,1,0.9553099694542203,1,0.6294277386386176
wf1e76ec,correct,2267.9000000953674,908.9000000953674,278.2999999523163,543.6000001430511,543.6000001430511,TRUE,3,1452.5000002384186,278.2999999523163,1730.8000001907349,4,1,0.8606004675955378,0.5,-0.794470015966848
wf1e76ec,correct,3034.7000000476837,600.5,308.2999999523163,1325.7999999523163,1325.7999999523163,TRUE,3,1926.2999999523163,308.2999999523163,2234.5999999046326,5,1,0.936100047071283,1,0.9123964059412768
wf1e76ec,correct,2005.7000000476837,319.7999999523163,468.2000000476837,738.4000000953674,738.4000000953674,TRUE,3,1058.2000000476837,468.2000000476837,1526.4000000953674,6,1,0.7978062038343258,1,0.27478558212390314
wf1e76ec,correct,1678.9000000953674,160.20000004768372,470.7000000476837,561.2000000476837,561.2000000476837,TRUE,3,721.4000000953674,470.7000000476837,1192.1000001430511,7,1,1.0633104570024638,1,0.08522667543643302
wf1e76ec,correct,3130.800000190735,324.5,746.3000001907349,1453.7999999523163,1453.7999999523163,TRUE,3,1778.2999999523163,746.3000001907349,2524.600000143051,8,1,0.2623081778442549,0.5,-0.6456141155062755
wf1e76ec,intrusion,4658.799999952316,366.90000009536743,866.0999999046326,2917.9000000953674,2917.9000000953674,TRUE,3,3284.800000190735,866.0999999046326,4150.900000095367,9,0.5,-1.1776703959939097,0,-1.6956042711324426
wf1e76ec,correct,1445.1000001430511,117.40000009536743,337.59999990463257,590.7999999523163,590.7999999523163,TRUE,3,708.2000000476837,337.59999990463257,1045.7999999523163,10,1,0.7998231831888084,0.5,-0.4728262684250281
wf1e76ec,correct,1639.2999999523163,78.29999995231628,480.10000014305115,655,655,TRUE,3,733.2999999523163,480.10000014305115,1213.4000000953674,11,1,1.09412116511274,0.5,-0.38037487984976875
wf1e76ec,correct,1799.8999998569489,199,276.39999985694885,258.7000000476837,625,FALSE,4,457.7000000476837,901.3999998569489,1359.0999999046326,12,0.5,-0.9992675463464363,1,0.9580129944545723
wf1e76ec,correct,1475,137.29999995231628,289.2999999523163,595.7000000476837,595.7000000476837,TRUE,3,733,289.2999999523163,1022.2999999523163,13,1,0.7603219994222502,1,0.1973472355082336
wf1e76ec,correct,1858.8999998569489,12.799999952316284,314.09999990463257,233,738.9000000953674,FALSE,4,245.79999995231628,1053,1298.7999999523163,14,1,0.749180865206094,0.5,-0.4740222202418847
wf1e76ec,correct,1585.1999998092651,53.299999952316284,382.09999990463257,689.7999999523163,689.7999999523163,TRUE,3,743.0999999046326,382.09999990463257,1125.1999998092651,15,1,0.7895228781693078,1,0.42093226692026314
wf1e76ec,correct,1361.5999999046326,175.59999990463257,334.10000014305115,438,438,TRUE,3,613.5999999046326,334.10000014305115,947.7000000476837,16,1,0.8751523452719862,1,-0.13355036127049214
wf1e76ec,correct,1574.6000001430511,263.5,948.7000000476837,NA,948.7000000476837,FALSE,2,263.5,948.7000000476837,1212.2000000476837,17,0.5,-0.5049662628025234,1,0.9134376282261557
wf1e76ec,correct,1572.7000000476837,280.59999990463257,870,NA,870,FALSE,2,280.59999990463257,870,1150.5999999046326,18,0,-1.6956042711324426,1,0.7134095718840456
wf1e76ec,correct,1619.1000001430511,113.60000014305115,449.09999990463257,604.2999999523163,604.2999999523163,TRUE,3,717.9000000953674,449.09999990463257,1167,19,1,0.5069817243435386,1,0.9343426475520719
w1e27c75,correct,2965.199999988079,9.599999994039536,341,1835.4000000059605,1835.4000000059605,TRUE,3,1845,341,2186,20,1,0.457795487165586,1,0.4740294223438731
w1e27c75,correct,3425.5999999940395,2887.7999999821186,NA,NA,2887.7999999821186,TRUE,1,2887.7999999821186,0,2887.7999999821186,21,1,-0.6721900104195884,1,0.16909858027258778
w1e27c75,correct,2157.600000023842,1612,NA,NA,1612,TRUE,1,1612,0,1612,22,1,-0.02892673234311534,0,-5.295130882736064
w1e27c75,correct,1658.9000000059605,1211.800000011921,NA,NA,1211.800000011921,TRUE,1,1211.800000011921,0,1211.800000011921,23,1,0.04334643288615931,1,0.402889856282681
w1e27c75,correct,3742.9000000059605,1063.7000000178814,1762.699999988079,316.59999999403954,316.59999999403954,TRUE,3,1380.300000011921,1762.699999988079,3143,24,1,0.4154487095186641,1,-0.2682459963531779
w1e27c75,correct,1614.7000000178814,1111.9000000059605,NA,NA,1111.9000000059605,TRUE,1,1111.9000000059605,0,1111.9000000059605,25,1,0.39442946194979767,1,0.5518065116109796
w1e27c75,correct,1419,1018.6999999880791,NA,NA,1018.6999999880791,TRUE,1,1018.6999999880791,0,1018.6999999880791,26,1,0.7562819312225222,1,-1.4454769894160837
w1e27c75,correct,2943,1321.300000011921,NA,NA,1321.300000011921,TRUE,1,1321.300000011921,0,1321.300000011921,27,1,-0.754813651275098,1,0.40517912502351494
w1e27c75,correct,3443.4000000059605,1390.2999999821186,1579.2000000178814,NA,1579.2000000178814,FALSE,2,1390.2999999821186,1579.2000000178814,2969.5,28,1,0.3382431249117378,1,0.5376224714666323
w1e27c75,correct,2728.4000000059605,693.7999999821186,1733.300000011921,NA,1733.300000011921,FALSE,2,693.7999999821186,1733.300000011921,2427.0999999940395,29,1,0.20817422330297455,1,-0.41810151844027815
w1e27c75,correct,3622.699999988079,990.5,826.7999999821186,729.6000000238419,729.6000000238419,TRUE,3,1720.1000000238419,826.7999999821186,2546.9000000059605,30,1,-0.0512285792406031,1,0.3336499633965985
w1e27c75,correct,1854.5,1000,NA,NA,1000,TRUE,1,1000,0,1000,31,1,0.287073315120574,1,-0.2583830832714315
w1e27c75,correct,1594.5999999940395,1377.5999999940395,NA,NA,1377.5999999940395,TRUE,1,1377.5999999940395,0,1377.5999999940395,32,1,0.7527477971201731,1,0.7166924107113264
w1e27c75,correct,3915.9000000059605,1293.0999999940395,906.8000000119209,720.8000000119209,720.8000000119209,TRUE,3,2013.9000000059605,906.8000000119209,2920.7000000178814,33,1,0.608653406611014,1,0.1257896272883969
w1e27c75,correct,2735.800000011921,768.0999999940395,1312.6000000238419,NA,1312.6000000238419,FALSE,2,768.0999999940395,1312.6000000238419,2080.7000000178814,34,1,-1.3580347477747046,1,0.6263578882855921
w1e27c75,correct,2073.5,1313,NA,NA,1313,TRUE,1,1313,0,1313,35,1,0.31237252846208086,1,0.4988188982707182
w1e27c75,correct,1978.9000000059605,1385.6000000238419,NA,NA,1385.6000000238419,TRUE,1,1385.6000000238419,0,1385.6000000238419,36,1,-0.12918642050006499,1,0.5062755165379804
w1e27c75,correct,1923.5999999940395,1507.4000000059605,NA,NA,1507.4000000059605,TRUE,1,1507.4000000059605,0,1507.4000000059605,37,1,0.2713969823822209,1,-0.4690862691724811
w1e27c75,correct,1386.9000000059605,987.7000000178814,NA,NA,987.7000000178814,TRUE,1,987.7000000178814,0,987.7000000178814,38,1,0.0903176107417587,1,0.3295968953363133
w8b27b76,timeout,NA,892.5999999940395,8903.5,NA,8903.5,NA,2,892.5999999940395,8903.5,9796.09999999404,39,1,1.1755023218519067,1,1.153102569880358
w8b27b76,correct,5558.5,1235.9000000059605,818.8999999761581,677.8000000119209,1113.300000011921,FALSE,4,1913.7000000178814,1932.199999988079,3845.9000000059605,40,1,0.5875116645824087,1,0.6420463824206395
w8b27b76,correct,4634.5,759,3011.9000000059605,NA,3011.9000000059605,FALSE,2,759,3011.9000000059605,3770.9000000059605,41,1,0.29579728880936357,1,0.41726234209183916
w8b27b76,intrusion,7139.300000011921,673.2000000178814,832.5999999940395,1208.5,1058.0999999940395,FALSE,6,2475.400000035763,2897.399999976158,5372.800000011921,42,0,-1.1925802895445268,0,-1.1925802895445268
w8b27b76,intrusion,4769.199999988079,621.5999999940395,754.3000000119209,2253.899999976158,2253.899999976158,TRUE,3,2875.4999999701977,754.3000000119209,3629.7999999821186,43,0.5,-0.7544437105202579,0,-1.1925802895445268
w8b27b76,correct,4800.299999982119,657.5999999940395,713.1999999880791,2170.800000011921,2170.800000011921,TRUE,3,2828.4000000059605,713.1999999880791,3541.5999999940395,44,1,0.7884111573151787,1,0.6102152943133462
w8b27b76,correct,3531.800000011921,492.90000000596046,1666.699999988079,NA,1666.699999988079,FALSE,2,492.90000000596046,1666.699999988079,2159.5999999940395,45,0,-1.1925802895445268,1,0.49960719222695577
w8b27b76,correct,2738.5,453.09999999403954,1403.2000000178814,NA,1403.2000000178814,FALSE,2,453.09999999403954,1403.2000000178814,1856.300000011921,46,0,-1.1925802895445268,1,0.8282814831016762
w8b27b76,correct,2623.5,577.6999999880791,1352.300000011921,NA,1352.300000011921,FALSE,2,577.6999999880791,1352.300000011921,1930,47,1,0.3526483937444308,1,0.8688053352441709
w8b27b76,correct,2296.399999976158,484.09999999403954,593.2999999821186,573.8000000119209,573.8000000119209,TRUE,3,1057.9000000059605,593.2999999821186,1651.199999988079,48,1,1.3239096659508198,0,-1.1925802895445268
w8b27b76,correct,2844.199999988079,528,1766.199999988079,NA,1766.199999988079,FALSE,2,528,1766.199999988079,2294.199999988079,49,0,-1.1925802895445268,1,0.7907106439190014
w8b27b76,correct,2824.699999988079,534.8000000119209,1675.8999999761581,NA,1675.8999999761581,FALSE,2,534.8000000119209,1675.8999999761581,2210.699999988079,50,0.5,-0.0557730413669359,1,0.8800009382440822
w8b27b76,other,4654.700000017881,457.80000001192093,1661.699999988079,NA,1661.699999988079,FALSE,2,457.80000001192093,1661.699999988079,2119.5,51,0,-1.1925802895445268,0,-1.1925802895445268
w8b27b76,correct,2099.300000011921,481.59999999403954,429.7000000178814,538.7999999821186,538.7999999821186,TRUE,3,1020.3999999761581,429.7000000178814,1450.0999999940395,52,1,1.384157760081627,1,0.3859002906951133
w8b27b76,correct,2350.800000011921,508,1362.4000000059605,NA,1362.4000000059605,FALSE,2,508,1362.4000000059605,1870.4000000059605,53,0.5,-0.682837278808227,1,0.7500178892098505
w8b27b76,correct,2191.4000000059605,449.90000000596046,1262.2999999821186,NA,1262.2999999821186,FALSE,2,449.90000000596046,1262.2999999821186,1712.199999988079,54,0,-1.1925802895445268,1,1.6050848243358178
w8b27b76,intrusion,3457,413.09999999403954,743.3000000119209,1788.0999999940395,1788.0999999940395,TRUE,3,2201.199999988079,743.3000000119209,2944.5,55,0,-1.1925802895445268,0,-1.1925802895445268
w8b27b76,correct,3841,522.4000000059605,2799.699999988079,NA,2799.699999988079,FALSE,2,522.4000000059605,2799.699999988079,3322.0999999940395,56,0,-1.1925802895445268,1,0.17689152647630604
w8b27b76,correct,2054.5999999940395,393.7999999821186,1257.0999999940395,NA,1257.0999999940395,FALSE,2,393.7999999821186,1257.0999999940395,1650.8999999761581,57,1,0.19486645884346934,1,1.1552172221511556
wbc79f63,correct,6120.299999998882,718.2999999988824,4311.700000001118,NA,4311.700000001118,FALSE,2,718.2999999988824,4311.700000001118,5030,58,0,-0.9531689575037563,1,0.8497168198277427
wbc79f63,correct,4260.199999999255,3100.5999999996275,NA,NA,3100.5999999996275,TRUE,1,3100.5999999996275,0,3100.5999999996275,59,1,1.1209181928298382,1,1.043060627408835
wbc79f63,correct,4421.800000000745,1119,1922.7000000011176,NA,1922.7000000011176,FALSE,2,1119,1922.7000000011176,3041.7000000011176,60,0,-0.9531689575037563,1,0.8531287483495292
wbc79f63,correct,5543.699999999255,1226.7999999988824,906.5,1786.800000000745,1786.800000000745,TRUE,3,3013.5999999996275,906.5,3920.0999999996275,61,1,0.561040491122411,0,-0.9531689575037563
wbc79f63,other,7671.4000000003725,778.6000000014901,5639.89999999851,NA,5639.89999999851,FALSE,2,778.6000000014901,5639.89999999851,6418.5,62,0,-0.9531689575037563,0,-0.9531689575037563
wbc79f63,correct,4310.9000000003725,692.5999999996275,2124.5,NA,2124.5,FALSE,2,692.5999999996275,2124.5,2817.0999999996275,63,0,-0.9531689575037563,1,0.7250761073997892
wbc79f63,correct,3281,847.6999999992549,1699,NA,1699,FALSE,2,847.6999999992549,1699,2546.699999999255,64,0,-0.9531689575037563,1,1.0633968107939293
wbc79f63,correct,2768.800000000745,708.9000000003725,1706,NA,1706,FALSE,2,708.9000000003725,1706,2414.9000000003725,65,0,-0.9531689575037563,1,0.8708060046456682
wbc79f63,correct,4413.9000000003725,1951.2000000011176,NA,NA,1951.2000000011176,TRUE,1,1951.2000000011176,0,1951.2000000011176,66,1,1.0383291698830632,1,0.9749006092315905
wbc79f63,correct,2956.4000000003725,1866.800000000745,NA,NA,1866.800000000745,TRUE,1,1866.800000000745,0,1866.800000000745,67,1,1.1654225158364622,1,0.8530885845930094
wbc79f63,correct,3556.5999999996275,781.5,1929.5999999996275,NA,1929.5999999996275,FALSE,2,781.5,1929.5999999996275,2711.0999999996275,68,0,-0.9531689575037563,1,0.9680466683385797
wbc79f63,other,4328.699999999255,856,2365.2999999988824,NA,2365.2999999988824,FALSE,2,856,2365.2999999988824,3221.2999999988824,69,0,-0.9531689575037563,0,-0.9531689575037563
wbc79f63,correct,3170.699999999255,1815.199999999255,NA,NA,1815.199999999255,TRUE,1,1815.199999999255,0,1815.199999999255,70,1,1.0598159196058863,0,-0.9531689575037563
wbc79f63,intrusion,9005.700000001118,802.5999999996275,3445.10000000149,2762.2999999988824,2762.2999999988824,TRUE,3,3564.89999999851,3445.10000000149,7010,71,0,-0.9531689575037563,1,1.3226934273479871
wbc79f63,other,5142,1025.0999999996275,2622.5999999996275,NA,2622.5999999996275,FALSE,2,1025.0999999996275,2622.5999999996275,3647.699999999255,72,0,-0.9531689575037563,0,-0.9531689575037563
wbc79f63,correct,5099.0999999996275,1746.5,573.2000000011176,1868.199999999255,1868.199999999255,TRUE,3,3614.699999999255,573.2000000011176,4187.9000000003725,73,0.5,-0.33940047352301644,0,-0.9531689575037563
wbc79f63,intrusion,4088.9000000003725,627.5999999996275,1873.699999999255,NA,1873.699999999255,FALSE,2,627.5999999996275,1873.699999999255,2501.2999999988824,74,0,-0.9531689575037563,0,-0.9531689575037563
wbc79f63,correct,3582,836.2000000011176,537.8999999985099,1155.4000000003725,1155.4000000003725,TRUE,3,1991.6000000014901,537.8999999985099,2529.5,75,1,0.914958039396378,0,-0.9531689575037563
wbc79f63,correct,2571.7999999988824,1767.0999999996275,NA,NA,1767.0999999996275,TRUE,1,1767.0999999996275,0,1767.0999999996275,76,1,1.1788545436574227,1,1.4814736443282512
w68042bc,intrusion,9300.40000000596,1099.9000000059605,659.0999999940395,1996,2859.4000000059605,TRUE,4,3095.9000000059605,3518.5,6614.4000000059605,77,0,-0.9659893092026227,0,-0.9659893092026227
w68042bc,correct,5031.800000011921,654.8000000119209,420.69999998807907,352.40000000596046,2232.199999988079,TRUE,5,3239.4000000059605,807.0999999940395,4046.5,78,1,1.319277514783828,1,0.9889205432650381
w68042bc,correct,4756.600000023842,645.1000000238419,340.2999999821186,336.30000001192093,2531.5999999940395,FALSE,4,981.4000000357628,2871.899999976158,3853.300000011921,79,1,0.8330984704028606,1,1.3162138204156528
w68042bc,correct,3794.800000011921,610.9000000059605,499.59999999403954,365.80000001192093,1245.9000000059605,TRUE,4,976.7000000178814,1745.5,2722.2000000178814,80,1,1.079690863774856,1,1.021049932524403
w68042bc,intrusion,6643.800000011921,587,647.7000000178814,499,3879,TRUE,4,1086,4526.700000017881,5612.700000017881,81,0,-0.9659893092026227,0,-0.9659893092026227
w68042bc,correct,3717.7000000178814,684,331.30000001192093,303.90000000596046,1188.5999999940395,TRUE,4,987.9000000059605,1519.9000000059605,2507.800000011921,82,1,1.128840184477463,0,-0.9659893092026227
w68042bc,intrusion,5398.799999982119,511.2999999821186,643.7000000178814,539,2729,FALSE,4,1050.2999999821186,3372.7000000178814,4423,83,0,-0.9659893092026227,0,-0.9659893092026227
w68042bc,intrusion,8730.90000000596,573.1999999880791,734.2000000178814,685.4000000059605,6418.699999988079,TRUE,4,1258.5999999940395,7152.9000000059605,8411.5,84,0,-0.9659893092026227,0,-0.9659893092026227
w68042bc,correct,3014.5999999940395,624.5,329.30000001192093,323.2999999821186,1004.0999999940395,TRUE,4,947.7999999821186,1333.4000000059605,2281.199999988079,85,1,0.9365006631395028,0,-0.9659893092026227
w68042bc,correct,3917.0999999940395,566.2999999821186,1554.4000000059605,361.40000000596046,1083.5999999940395,TRUE,4,927.6999999880791,2638,3565.699999988079,86,0.5,-0.24455638222229875,0,-0.9659893092026227
w68042bc,intrusion,3514,516.5999999940395,575.8000000119209,338.59999999403954,1172,FALSE,4,855.1999999880791,1747.800000011921,2603,87,0,-0.9659893092026227,0.5,0.09932793586932953
w68042bc,correct,3091.399999976158,670.5999999940395,374.5,330.40000000596046,1067.8999999761581,FALSE,4,1001,1442.3999999761581,2443.399999976158,88,1,1.0454569441743073,1,1.3258354769466087
w68042bc,correct,3000.100000023842,725,360.40000000596046,290.2000000178814,895.0999999940395,TRUE,4,1015.2000000178814,1255.5,2270.7000000178814,89,1,1.2287854625609438,0.5,-0.2874533810063584
w68042bc,correct,2674,570.7999999821186,332.2000000178814,306,752.1000000238419,TRUE,5,1628.9000000059605,753.5,2382.4000000059605,90,1,1.24227520204428,1,1.0660246564963092
w68042bc,intrusion,4812.800000011921,568.3000000119209,714.6999999880791,428.60000002384186,2386.899999976158,TRUE,4,996.9000000357628,3101.599999964237,4098.5,91,0.5,0.1028400984755054,0,-0.9659893092026227
w68042bc,intrusion,5283.200000017881,645.3000000119209,621.4000000059605,477.7999999821186,2042.0999999940395,TRUE,5,3165.199999988079,1036.2000000178814,4201.4000000059605,92,0,-0.9659893092026227,0,-0.9659893092026227
w68042bc,intrusion,2911.5,504.90000000596046,344.59999999403954,317.59999999403954,898.3000000119209,TRUE,4,822.5,1242.9000000059605,2065.4000000059605,93,0,-0.9659893092026227,0,-0.9659893092026227
w68042bc,correct,2665.7000000178814,459.7000000178814,330,315.5,787.2999999821186,TRUE,4,775.2000000178814,1117.2999999821186,1892.5,94,1,1.172445299225907,0,-0.9659893092026227
w68042bc,intrusion,7182.199999988079,485.5,827.5999999940395,734.5,4213.300000011921,FALSE,4,1220,5040.9000000059605,6260.9000000059605,95,1,0.6021226843135096,0,-0.9659893092026227
we9a3929,intrusion,4078.600000143051,862,823,1088.2000000476837,1088.2000000476837,FALSE,3,1950.2000000476837,823,2773.2000000476837,96,0,-0.8028321438451254,0,-0.8028321438451254
we9a3929,correct,3266.0999999046326,677.7999999523163,258.2999999523163,1152.7000000476837,1152.7000000476837,TRUE,3,1830.5,258.2999999523163,2088.7999999523163,97,1,1.3861343377036623,1,1.2266316565906896
we9a3929,correct,2288.2999999523163,508.40000009536743,1327,NA,1327,FALSE,2,508.40000009536743,1327,1835.4000000953674,98,0,-0.8028321438451254,1,1.341707855261902
we9a3929,correct,2424.300000190735,623.5,302.60000014305115,747.0999999046326,747.0999999046326,TRUE,3,1370.5999999046326,302.60000014305115,1673.2000000476837,99,1,1.1180626596277636,0,-0.8028321438451254
we9a3929,intrusion,4537.899999856949,558.7999999523163,764.9000000953674,1932.7999999523163,1932.7999999523163,TRUE,3,2491.5999999046326,764.9000000953674,3256.5,100,0,-0.8028321438451254,0,-0.8028321438451254
we9a3929,correct,2121.699999809265,441.19999980926514,1154.2000000476837,NA,1154.2000000476837,FALSE,2,441.19999980926514,1154.2000000476837,1595.3999998569489,101,0,-0.8028321438451254,1,1.139631910215821
we9a3929,intrusion,3990.5,508.59999990463257,853.3000001907349,790,1078.5,FALSE,4,1298.5999999046326,1931.8000001907349,3230.4000000953674,102,0,-0.8028321438451254,0,-0.8028321438451254
we9a3929,correct,2041.2999999523163,480.09999990463257,1044.5999999046326,NA,1044.5999999046326,FALSE,2,480.09999990463257,1044.5999999046326,1524.6999998092651,103,0,-0.8028321438451254,1,1.2756149211811076
we9a3929,intrusion,3103,500.69999980926514,1937.7000000476837,NA,1937.7000000476837,FALSE,2,500.69999980926514,1937.7000000476837,2438.399999856949,104,0,-0.8028321438451254,0,-0.8028321438451254
we9a3929,intrusion,2930.899999856949,578.2999999523163,343.7999999523163,579.9000000953674,579.9000000953674,TRUE,3,1158.2000000476837,343.7999999523163,1502,105,0,-0.8028321438451254,0,-0.8028321438451254
we9a3929,correct,1728.3999998569489,499.7999999523163,780.4000000953674,NA,780.4000000953674,FALSE,2,499.7999999523163,780.4000000953674,1280.2000000476837,106,0,-0.8028321438451254,1,1.2974607043076354
we9a3929,other,2443.2000000476837,582.4000000953674,1539.4000000953674,NA,1539.4000000953674,FALSE,2,582.4000000953674,1539.4000000953674,2121.800000190735,107,0,-0.8028321438451254,0,-0.8028321438451254
we9a3929,correct,2151.4000000953674,531.2000000476837,188.70000004768372,571.5,571.5,TRUE,3,1102.7000000476837,188.70000004768372,1291.4000000953674,108,1,1.3089224600209386,0,-0.8028321438451254
we9a3929,correct,2243.600000143051,669.4000000953674,501.90000009536743,532.6999998092651,532.6999998092651,TRUE,3,1202.0999999046326,501.90000009536743,1704,109,1,0.9171156232954596,0,-0.8028321438451254
we9a3929,correct,3622.7000000476837,577.4000000953674,291.2999999523163,381.7999999523163,381.7999999523163,TRUE,3,959.2000000476837,291.2999999523163,1250.5,110,1,1.222504151521686,1,0.8988625578198345
we9a3929,correct,1491,451.30000019073486,371,326.69999980926514,326.69999980926514,TRUE,3,778,371,1149,111,1,1.3309639061147525,0,-0.8028321438451254
we9a3929,correct,1352.9000000953674,883.6000001430511,NA,NA,883.6000001430511,TRUE,1,883.6000001430511,0,883.6000001430511,112,1,1.269753985735395,1,1.278411036443831
we9a3929,other,1750.7999999523163,578.2999999523163,902.1000001430511,NA,902.1000001430511,FALSE,2,578.2999999523163,902.1000001430511,1480.4000000953674,113,0,-0.8028321438451254,0,-0.8028321438451254
we9a3929,other,4502.899999856949,554.2999999523163,242.40000009536743,1566.6999998092651,1117.7000000476837,FALSE,4,2120.9999997615814,1360.1000001430511,3481.0999999046326,114,0,-0.8028321438451254,0,-0.8028321438451254
w3c30b10,correct,8940,1036,5150,NA,5150,TRUE,2,1036,5150,6186,115,1,0.2392505569507229,1,-0.1356749755534879
w3c30b10,correct,4080,976,642,1456,1456,TRUE,3,2432,642,3074,116,1,0.647288715388817,1,0.1764055672406319
w3c30b10,correct,4769,871,1362,NA,1362,FALSE,2,871,1362,2233,117,0,-2.067546027896344,1,0.7074254260398058
w3c30b10,correct,2715,699,488,805,805,TRUE,3,1504,488,1992,118,1,0.811698634389151,1,0.04887645992363219
w3c30b10,correct,3593,865,1009,845,845,TRUE,3,1710,1009,2719,119,1,0.47753687471538403,0,-2.067546027896344
w3c30b10,other,5297,859,2582,NA,2582,FALSE,2,859,2582,3441,120,0.5,-1.4187242911513078,0,-2.067546027896344
w3c30b10,correct,5137,2894,642,915,915,TRUE,3,3809,642,4451,121,1,0.5784123100579402,1,0.3200537654300172
w3c30b10,correct,3788,941,2023,NA,2023,FALSE,2,941,2023,2964,122,1,-0.25104414867492353,1,0.7215769378943342
w3c30b10,correct,3746,899,2063,NA,2063,FALSE,2,899,2063,2962,123,1,0.4231446249574258,1,0.6840999199344466
w3c30b10,correct,3552,728,420,1478,1478,TRUE,3,2206,420,2626,124,1,0.5314617722859241,1,0.4290358551283895
w3c30b10,correct,3311,924,1480,NA,1480,FALSE,2,924,1480,2404,125,0,-2.067546027896344,1,0.6636965970477144
w3c30b10,correct,3743,722,430,759,895,FALSE,4,1481,1325,2806,126,1,0.5912081710472842,1,0.5653627911050706
w3c30b10,correct,3099,1147,494,664,664,TRUE,3,1811,494,2305,127,1,0.5015630782780933,0.5,-1.381279944493489
w3c30b10,correct,2992,774,1377,NA,1377,FALSE,2,774,1377,2151,128,0,-2.067546027896344,1,0.47083588597183157
w3c30b10,correct,3855,1243,1743,NA,1743,FALSE,2,1243,1743,2986,129,1,0.7208883267454373,1,0.5750780112970666
w3c30b10,correct,3675,725,666,426,1026,FALSE,4,1151,1692,2843,130,1,0.7026941243971437,1,0.3904461260733277
w3c30b10,correct,2916,645,1544,NA,1544,FALSE,2,645,1544,2189,131,1,-0.03661292709779014,1,0.7398023639229431
w3c30b10,correct,3019,763,1475,NA,1475,FALSE,2,763,1475,2238,132,1,0.46819501480647674,1,0.6409337401106254
w3c30b10,correct,3671,796,889,1216,1216,TRUE,3,2012,889,2901,133,1,0.5018133829467601,0,-2.067546027896344
w86d65f2,correct,5032,868,3643,NA,3643,FALSE,2,868,3643,4511,134,0,-0.8564266297157466,1,0.4448692554995858
w86d65f2,timeout,NA,630,763,288,13334,NA,4,918,14097,15015,135,0,-0.8564266297157466,0,-0.8564266297157466
w86d65f2,timeout,NA,614,852,344,591,NA,11,3183,11388,14571,136,0,-0.8564266297157466,0,-0.8564266297157466
w86d65f2,empty,2370,584,620,319,380,FALSE,4,903,1000,1903,137,0,-0.8564266297157466,0,-0.8564266297157466
w86d65f2,correct,4731,1258,2381,NA,2381,TRUE,2,1258,2381,3639,138,1,0.8902097704981854,1,1.38972501870151
w86d65f2,correct,3704,524,2231,NA,2231,FALSE,2,524,2231,2755,139,0,-0.8564266297157466,1,0.8591472553410546
w86d65f2,empty,3231,550,616,1300,1300,FALSE,3,1850,616,2466,140,1,1.409576355369873,0,-0.8564266297157466
w86d65f2,intrusion,3931,506,619,1967,1967,FALSE,3,2473,619,3092,141,0.5,-0.0851658016962822,0,-0.8564266297157466
w86d65f2,empty,2514,542,560,295,717,FALSE,4,837,1277,2114,142,0,-0.8564266297157466,0,-0.8564266297157466
w86d65f2,correct,3376,497,1685,NA,1685,FALSE,2,497,1685,2182,143,0,-0.8564266297157466,1,0.7291746081515696
w86d65f2,other,3912,636,2537,NA,2537,FALSE,2,636,2537,3173,144,0,-0.8564266297157466,0,-0.8564266297157466
w86d65f2,correct,3163,530,1722,NA,1722,FALSE,2,530,1722,2252,145,1,1.162956891164164,1,1.4409471576700832
w86d65f2,intrusion,4656,525,1011,2310,2310,TRUE,3,2835,1011,3846,146,0,-0.8564266297157466,0,-0.8564266297157466
w86d65f2,correct,2803,507,1589,NA,1589,FALSE,2,507,1589,2096,147,0,-0.8564266297157466,1,1.0941536042589746
w86d65f2,correct,2820,547,954,814,814,TRUE,3,1361,954,2315,148,1,1.4912660462176088,1,1.225703766510914
w86d65f2,correct,2752,533,1596,NA,1596,FALSE,2,533,1596,2129,149,0,-0.8564266297157466,1,0.6014906541032156
w86d65f2,correct,2475,578,533,915,915,TRUE,3,1493,533,2026,150,1,1.4875697922437205,0,-0.8564266297157466
w86d65f2,correct,2644,679,453,756,756,TRUE,3,1435,453,1888,151,1,1.0983993565028325,0,-0.8564266297157466
w86d65f2,correct,3025,556,907,991,991,TRUE,3,1547,907,2454,152,1,1.5845923345971642,1,1.0149641420687723
w2f58008,intrusion,NA,NA,NA,NA,NA,NA,0,0,0,0,153,NA,NA,NA,NA
w2f58008,correct,2796.699999999255,2243.5,NA,NA,2243.5,TRUE,1,2243.5,0,2243.5,154,1,0.7417668274042448,1,-0.8307686666642129
w2f58008,correct,4436.400000002235,3861.60000000149,NA,NA,3861.60000000149,TRUE,1,3861.60000000149,0,3861.60000000149,155,1,0.38027556605980406,1,0.9553904455567893
w2f58008,correct,1450.4000000022352,1132.5,NA,NA,1132.5,TRUE,1,1132.5,0,1132.5,156,1,0.6685384461487558,1,0.7910325470946459
w2f58008,intrusion,2272.800000000745,725.1000000014901,NA,NA,725.1000000014901,FALSE,1,725.1000000014901,0,725.1000000014901,157,1,-0.9680524970218133,0,-2.3415347411759178
w2f58008,intrusion,NA,NA,NA,NA,NA,NA,0,0,0,0,158,NA,NA,NA,NA
w2f58008,correct,1514.800000000745,1165.8999999985099,NA,NA,1165.8999999985099,TRUE,1,1165.8999999985099,0,1165.8999999985099,159,1,0.7156623156941017,1,0.2398899020302571
w2f58008,correct,2196.10000000149,1702,NA,NA,1702,TRUE,1,1702,0,1702,160,1,0.21116105016154574,1,0.8886071571360662
w2f58008,correct,2002.5,1775.5,NA,NA,1775.5,TRUE,1,1775.5,0,1775.5,161,1,-0.5532227874433111,1,0.5036698737671753
w2f58008,correct,1306.199999999255,937.6000000014901,NA,NA,937.6000000014901,TRUE,1,937.6000000014901,0,937.6000000014901,162,1,0.7739397490985795,1,-0.46449281719373686
w2f58008,correct,1916.8999999985099,1416.699999999255,NA,NA,1416.699999999255,TRUE,1,1416.699999999255,0,1416.699999999255,163,1,0.43819614582743227,1,0.569631761910092
w2f58008,correct,1568.699999999255,1188.199999999255,NA,NA,1188.199999999255,TRUE,1,1188.199999999255,0,1188.199999999255,164,1,0.5430262464449294,1,-0.23884055723993602
w2f58008,intrusion,1366.3999999985099,935.0999999977648,NA,NA,935.0999999977648,TRUE,1,935.0999999977648,0,935.0999999977648,165,1,-1.0631217302720644,1,0.7534683342377025
w2f58008,correct,1406.7999999970198,1052.199999999255,NA,NA,1052.199999999255,TRUE,1,1052.199999999255,0,1052.199999999255,166,1,0.5494274980647954,1,-1.0348615167872819
w2f58008,intrusion,6786.099999997765,1496.5999999977648,NA,NA,1496.5999999977648,TRUE,1,1496.5999999977648,0,1496.5999999977648,167,0,-2.3415347411759178,1,-0.695788967557887
w2f58008,correct,1481.0999999977648,1198,NA,NA,1198,TRUE,1,1198,0,1198,168,1,0.343710283929553,1,0.6372873382122354
w2f58008,correct,1259.5999999977648,952.3999999985099,NA,NA,952.3999999985099,TRUE,1,952.3999999985099,0,952.3999999985099,169,1,0.8032283641229153,1,0.7450341912737792
w2f58008,correct,1445.199999999255,1078.8999999985099,NA,NA,1078.8999999985099,TRUE,1,1078.8999999985099,0,1078.8999999985099,170,1,0.5728195764201243,0,-2.3415347411759178
w2f58008,correct,1138.4000000022352,795.6000000014901,NA,NA,795.6000000014901,TRUE,1,795.6000000014901,0,795.6000000014901,171,1,0.5498180903238287,1,0.8895546140408954
wcc762ef,correct,2941.800000000745,704.6999999992549,1755.4000000022352,NA,1755.4000000022352,FALSE,2,704.6999999992549,1755.4000000022352,2460.10000000149,172,1,-0.08476194973823768,1,0.35463352281665755
wcc762ef,correct,2975.60000000149,702.3000000007451,1801.300000000745,NA,1801.300000000745,FALSE,2,702.3000000007451,1801.300000000745,2503.60000000149,173,1,0.022888377436800177,1,0.5995853750694767
wcc762ef,correct,2721,921.5,1427.3999999985099,NA,1427.3999999985099,FALSE,2,921.5,1427.3999999985099,2348.89999999851,174,1,0.5127483456693052,1,0.6949978221579084
wcc762ef,correct,2833.39999999851,662,541.3999999985099,1137.7000000029802,1137.7000000029802,TRUE,3,1799.7000000029802,541.3999999985099,2341.10000000149,175,1,0.7941124276850217,1,0.4671398064245047
wcc762ef,correct,3297.5,552.2999999970198,608,1744.1000000014901,1744.1000000014901,TRUE,3,2296.39999999851,608,2904.39999999851,176,1,0.5017009275998239,1,0.30793715809444544
wcc762ef,correct,4417.5,594.8999999985099,808.9000000022352,394.3999999985099,2102.699999999255,FALSE,4,989.2999999970198,2911.60000000149,3900.89999999851,177,1,0.5987005123646708,1,0.7388262870382233
wcc762ef,correct,3183,1079.300000000745,449.69999999925494,965.5,965.5,TRUE,3,2044.800000000745,449.69999999925494,2494.5,178,1,0.6920541289653245,1,0.7653390422790037
wcc762ef,correct,2530.300000000745,539,439.5,629.2000000029802,527.5,FALSE,4,1168.2000000029802,967,2135.2000000029802,179,1,0.7299512374202222,1,0.6958351241453912
wcc762ef,correct,2293.5,784.5,477.20000000298023,570.8999999985099,570.8999999985099,TRUE,3,1355.3999999985099,477.20000000298023,1832.6000000014901,180,1,0.7546309546650213,1,0.09646472768786915
wcc762ef,correct,1810.1000000014901,537,328,573.9000000022352,573.9000000022352,TRUE,3,1110.9000000022352,328,1438.9000000022352,181,1,0.6740115199084685,1,0.438941271947018
wcc762ef,intrusion,2929.199999999255,464.69999999925494,934.1999999992549,1193.1000000014901,1193.1000000014901,TRUE,3,1657.800000000745,934.1999999992549,2592,182,0,-1.8571221068208255,0.5,-1.690071536850885
wcc762ef,correct,2349.39999999851,784.1000000014901,676.0999999977648,563.4000000022352,563.4000000022352,TRUE,3,1347.5000000037253,676.0999999977648,2023.6000000014901,183,1,0.6462548806539622,1,0.8377095425298079
wcc762ef,correct,2071.800000000745,629.0999999977648,1080.6000000014901,NA,1080.6000000014901,FALSE,2,629.0999999977648,1080.6000000014901,1709.699999999255,184,0,-1.8571221068208255,1,0.7259654221424376
wcc762ef,correct,5299.199999999255,530.8999999985099,842.1000000014901,3332.599999997765,3332.599999997765,TRUE,3,3863.4999999962747,842.1000000014901,4705.599999997765,185,1,-0.18187172031150106,0,-1.8571221068208255
wcc762ef,correct,1934.199999999255,561.3999999985099,977,NA,977,FALSE,2,561.3999999985099,977,1538.3999999985099,186,0,-1.8571221068208255,1,0.7404530388487891
wcc762ef,correct,4338,310.5,2446.39999999851,1210,1210,TRUE,3,1520.5,2446.39999999851,3966.89999999851,187,1,0.7147204898936504,0.5,-1.5842019939802086
wcc762ef,correct,2186.300000000745,531.5,741.8000000007451,530,530,TRUE,3,1061.5,741.8000000007451,1803.300000000745,188,1,0.6463648868692538,1,-0.45395862396547854
wcc762ef,correct,1800.0999999977648,405.29999999701977,414.70000000298023,553.0999999977648,553.0999999977648,TRUE,3,958.3999999947846,414.70000000298023,1373.0999999977648,189,1,0.8367318147781115,0.5,-1.3102821457370903
wcc762ef,correct,2375.89999999851,980.1000000014901,360.3999999985099,607,607,TRUE,3,1587.1000000014901,360.3999999985099,1947.5,190,1,0.6997871400840223,0,-1.8571221068208255
we2b99fe,correct,4555.699999999255,736.1000000014901,710.5,356.30000000074506,380.6000000014901,TRUE,5,1473.0000000037253,2397.599999997765,3870.60000000149,191,1,0.6175208003792624,1,0.6843779887742797
we2b99fe,correct,3117.400000002235,544.3000000007451,851,1332.300000000745,1332.300000000745,TRUE,3,1876.6000000014901,851,2727.60000000149,192,1,-1.4840507103047647,1,0.36342123333604953
we2b99fe,correct,1820.6000000014901,461.70000000298023,375.8999999985099,571.6999999992549,571.6999999992549,TRUE,3,1033.4000000022352,375.8999999985099,1409.300000000745,193,1,0.7045829728222939,1,0.18952799427818467
we2b99fe,correct,2696.2000000029802,1530.2000000029802,NA,NA,1530.2000000029802,TRUE,1,1530.2000000029802,0,1530.2000000029802,194,1,-0.3305184803275832,1,0.49880224483775043
we2b99fe,empty,6116.699999999255,816,2476.199999999255,NA,2476.199999999255,TRUE,2,816,2476.199999999255,3292.199999999255,195,0,-3.383948305770824,1,-0.03265573187720009
we2b99fe,correct,3501.699999999255,534.6999999992549,366.5999999977648,862.4000000022352,862.4000000022352,TRUE,3,1397.1000000014901,366.5999999977648,1763.699999999255,196,1,0.27372513239943363,1,0.5854221882080833
we2b99fe,intrusion,6336.900000002235,613.6000000014901,762.8999999985099,1474.1000000014901,1474.1000000014901,TRUE,3,2087.7000000029802,762.8999999985099,2850.60000000149,197,1,0.377884591065312,1,0.4170562138947945
we2b99fe,correct,6980.70000000298,599.5,1149.4000000022352,2150.300000000745,1789.1000000014901,TRUE,5,4538.900000002235,1677.300000000745,6216.20000000298,198,1,0.7277810693023002,1,0.5189896431015173
we2b99fe,correct,3015.300000000745,475,1457.300000000745,NA,1457.300000000745,TRUE,2,475,1457.300000000745,1932.300000000745,199,1,0.6696433705994925,1,0.3277215930638234
we2b99fe,correct,3316.099999997765,549.6999999992549,887.5,887.8999999985099,887.8999999985099,TRUE,3,1437.5999999977648,887.5,2325.099999997765,200,1,0.36781183798185135,1,0.08512049165350911
we2b99fe,correct,3923.800000000745,638.3999999985099,830.8000000007451,1106.199999999255,1106.199999999255,TRUE,3,1744.5999999977648,830.8000000007451,2575.39999999851,201,1,-2.007462573232338,1,0.6626972276314219
we2b99fe,correct,2224.900000002235,412.5,961.3000000007451,NA,961.3000000007451,TRUE,2,412.5,961.3000000007451,1373.800000000745,202,1,0.3838971473068664,1,0.35154320007292805
we2b99fe,timeout,NA,633.4000000022352,1625.0999999977648,NA,1625.0999999977648,NA,2,633.4000000022352,1625.0999999977648,2258.5,203,0,-3.383948305770824,1,0.4134988912804228
we2b99fe,correct,4589.900000002235,476.1000000014901,993.5,1225.699999999255,1225.699999999255,TRUE,3,1701.800000000745,993.5,2695.300000000745,204,1,0.28876732792064647,1,0.4488184799364315
we2b99fe,correct,2636.60000000149,702.2000000029802,1028.199999999255,NA,1028.199999999255,TRUE,2,702.2000000029802,1028.199999999255,1730.4000000022352,205,1,0.11391222075700054,1,0.6278731473126243
we2b99fe,correct,2612.099999997765,544.5,1142.300000000745,NA,1142.300000000745,TRUE,2,544.5,1142.300000000745,1686.800000000745,206,1,-0.7327142230735941,1,0.73761720428447
we2b99fe,correct,2520.699999999255,557.5,1095.3999999985099,NA,1095.3999999985099,TRUE,2,557.5,1095.3999999985099,1652.8999999985099,207,1,0.09376525056741421,1,-1.5939406531098719
we2b99fe,correct,3759.800000000745,466.19999999925494,947.6000000014901,NA,947.6000000014901,TRUE,2,466.19999999925494,947.6000000014901,1413.800000000745,208,1,0.35598635508214915,1,-0.13269935018939474
we2b99fe,correct,3256.5,871.0999999977648,1690.6000000014901,NA,1690.6000000014901,TRUE,2,871.0999999977648,1690.6000000014901,2561.699999999255,209,1,0.40341147008273415,1,0.39982028348199566
w4b7162d,timeout,NA,2711.2999999523163,1214.3999999761581,11103.300000071526,11103.300000071526,NA,3,13814.600000023842,1214.3999999761581,15029,210,0,-0.7609797892229442,0,-0.7609797892229442
w4b7162d,empty,7509.600000023842,991,1448.6000000238419,1055.6000000238419,2816.600000023842,FALSE,4,2046.6000000238419,4265.200000047684,6311.800000071526,211,0,-0.7609797892229442,0,-0.7609797892229442
w4b7162d,empty,4863.199999928474,790.3999999761581,799.6000000238419,513.1000000238419,1846.5999999046326,FALSE,4,1303.5,2646.1999999284744,3949.6999999284744,212,0,-0.7609797892229442,0,-0.7609797892229442
w4b7162d,empty,4757.299999952316,1030.5,2128.1999999284744,NA,2128.1999999284744,FALSE,2,1030.5,2128.1999999284744,3158.6999999284744,213,0,-0.7609797892229442,0,-0.7609797892229442
w4b7162d,empty,2918.2000000476837,839.3000000715256,1720.2999999523163,NA,1720.2999999523163,FALSE,2,839.3000000715256,1720.2999999523163,2559.600000023842,214,0,-0.7609797892229442,0,-0.7609797892229442
w4b7162d,correct,5231.200000047684,814.8000000715256,543.8999999761581,423.89999997615814,2120.7000000476837,FALSE,4,1238.7000000476837,2664.600000023842,3903.3000000715256,215,0,-0.7609797892229442,1,1.358302800491924
w4b7162d,empty,5348.299999952316,670.3999999761581,1255.6000000238419,2455.6999999284744,2455.6999999284744,FALSE,3,3126.0999999046326,1255.6000000238419,4381.699999928474,216,1,0.9542284721444692,0,-0.7609797892229442
w4b7162d,correct,4679.5,663.3999999761581,991.8999999761581,2127.7000000476837,2127.7000000476837,TRUE,3,2791.100000023842,991.8999999761581,3783,217,1,1.377995514730945,1,1.4561205705626705
w4b7162d,correct,4590.299999952316,646,504.39999997615814,2375.6999999284744,2375.6999999284744,TRUE,3,3021.6999999284744,504.39999997615814,3526.0999999046326,218,1,1.2215237925994051,0,-0.7609797892229442
w4b7162d,correct,2925.899999976158,486.6999999284744,552.2000000476837,1120.7000000476837,1120.7000000476837,TRUE,3,1607.3999999761581,552.2000000476837,2159.600000023842,219,1,1.3516700195726912,0,-0.7609797892229442
w4b7162d,correct,2645.100000023842,550.1000000238419,487.5,767.6000000238419,767.6000000238419,TRUE,3,1317.7000000476837,487.5,1805.2000000476837,220,1,1.3532189540091926,0,-0.7609797892229442
w4b7162d,correct,5613.900000095367,525.8000000715256,2488.5,566.1000000238419,777.5999999046326,FALSE,4,1091.9000000953674,3266.0999999046326,4358,221,0,-0.7609797892229442,1,1.045061174779038
w4b7162d,empty,3285.399999976158,622.7999999523163,2200.5,NA,2200.5,FALSE,2,622.7999999523163,2200.5,2823.2999999523163,222,0,-0.7609797892229442,0,-0.7609797892229442
w4b7162d,correct,2351.600000023842,558.6999999284744,432.5,976.1000000238419,976.1000000238419,TRUE,3,1534.7999999523163,432.5,1967.2999999523163,223,1,1.3037287800324473,0,-0.7609797892229442
w4b7162d,correct,2117.6999999284744,597.8999999761581,373.60000002384186,722.5,722.5,TRUE,3,1320.3999999761581,373.60000002384186,1694,224,1,1.2025919741894826,0,-0.7609797892229442
w4b7162d,empty,2933.399999976158,694.6999999284744,1688.7000000476837,NA,1688.7000000476837,FALSE,2,694.6999999284744,1688.7000000476837,2383.399999976158,225,0,-0.7609797892229442,0,-0.7609797892229442
w4b7162d,empty,2948.3000000715256,517.8999999761581,720.7000000476837,992.1000000238419,992.1000000238419,FALSE,3,1510,720.7000000476837,2230.7000000476837,226,1,1.2946933313688442,0,-0.7609797892229442
w4b7162d,correct,3157.8000000715256,485.8000000715256,542.8999999761581,1552.3999999761581,1552.3999999761581,TRUE,3,2038.2000000476837,542.8999999761581,2581.100000023842,227,1,1.409026573913462,1,1.2216613621901526
w4b7162d,correct,3054,454,1936,NA,1936,FALSE,2,454,1936,2390,228,0,-0.7609797892229442,1,1.5052736567625458
we2750fa,correct,5578.70000000298,1106.6000000014901,799.8000000044703,2502.0999999940395,2502.0999999940395,TRUE,3,3608.6999999955297,799.8000000044703,4408.5,229,1,0.7513950124979322,1,0.7267972020643496
we2750fa,correct,4490.39999999851,1165.3999999985099,573.1000000014901,1640.5999999940395,1640.5999999940395,TRUE,3,2805.9999999925494,573.1000000014901,3379.0999999940395,230,1,0.6120231320648525,1,0.6285313470244702
we2750fa,correct,3999.2999999970198,2535.0999999940395,NA,NA,2535.0999999940395,TRUE,1,2535.0999999940395,0,2535.0999999940395,231,1,0.5933686488441401,1,0.6762796510978635
we2750fa,correct,4003,799.5,2316.7000000029802,NA,2316.7000000029802,FALSE,2,799.5,2316.7000000029802,3116.2000000029802,232,0,-1.5908226733533053,1,0.3198527601081355
we2750fa,correct,2371.39999999851,1656.2999999970198,NA,NA,1656.2999999970198,TRUE,1,1656.2999999970198,0,1656.2999999970198,233,1,0.730004062733395,1,0.5441905870333424
we2750fa,intrusion,7377.60000000149,803.7999999970198,1418,2152,2152,TRUE,3,2955.7999999970198,1418,4373.79999999702,234,0,-1.5908226733533053,0,-1.5908226733533053
we2750fa,empty,NA,NA,NA,NA,NA,NA,0,0,0,0,235,NA,NA,NA,NA
we2750fa,correct,2463.7999999970198,1775.6999999955297,NA,NA,1775.6999999955297,TRUE,1,1775.6999999955297,0,1775.6999999955297,236,1,0.8278263428738587,0,-1.5908226733533053
we2750fa,empty,NA,NA,NA,NA,NA,NA,0,0,0,0,237,NA,NA,NA,NA
we2750fa,correct,3701.5999999940395,821.1999999955297,1972.3999999985099,NA,1972.3999999985099,FALSE,2,821.1999999955297,1972.3999999985099,2793.5999999940395,238,1,0.5896609112808725,1,0.5301059570437268
we2750fa,correct,3922.89999999851,893.2999999970198,519.8999999985099,585.3000000044703,1093.5999999940395,FALSE,4,1478.6000000014901,1613.4999999925494,3092.0999999940395,239,1,0.5100280254912167,1,0.6466908038294873
we2750fa,correct,4560,648.2999999970198,1988.8000000044703,NA,1988.8000000044703,FALSE,2,648.2999999970198,1988.8000000044703,2637.10000000149,240,0,-1.5908226733533053,1,0.40737305783475936
we2750fa,intrusion,3367.89999999851,802.3000000044703,1972.0999999940395,NA,1972.0999999940395,FALSE,2,802.3000000044703,1972.0999999940395,2774.39999999851,241,0,-1.5908226733533053,0,-1.5908226733533053
we2750fa,correct,3713.7999999970198,733.7999999970198,582.7999999970198,1669.6000000014901,1669.6000000014901,TRUE,3,2403.39999999851,582.7999999970198,2986.1999999955297,242,1,0.4602639973617743,1,0.5280973855244496
we2750fa,correct,3268.3000000044703,703.6000000014901,1650.3000000044703,NA,1650.3000000044703,FALSE,2,703.6000000014901,1650.3000000044703,2353.9000000059605,243,1,0.58742634642209135,1,0.7366455566446561
we2750fa,intrusion,4787,626,2428.39999999851,NA,2428.39999999851,TRUE,2,626,2428.39999999851,3054.39999999851,244,0,-1.5908226733533053,0,-1.5908226733533053
we2750fa,correct,3812,858.1999999955297,2258.4000000059605,NA,2258.4000000059605,FALSE,2,858.1999999955297,2258.4000000059605,3116.60000000149,245,1,0.3520223354764706,1,0.9266444904824734
we2750fa,correct,2393.10000000149,1499.6000000014901,NA,NA,1499.6000000014901,TRUE,1,1499.6000000014901,0,1499.6000000014901,246,1,0.5303122995134074,0,-1.5908226733533053
we2750fa,correct,2101.6999999955297,1285.6999999955297,NA,NA,1285.6999999955297,TRUE,1,1285.6999999955297,0,1285.6999999955297,247,1,0.8108196200936615,1,0.6851824664648896
w73a81a9,correct,3519.2999999970198,2547.1000000089407,NA,NA,2547.1000000089407,TRUE,1,2547.1000000089407,0,2547.1000000089407,248,1,1.1837305081382208,0,-1.063787731257111
w73a81a9,correct,3702.0999999940395,2797.3999999910593,NA,NA,2797.3999999910593,TRUE,1,2797.3999999910593,0,2797.3999999910593,249,1,1.1582607942664305,0,-1.063787731257111
w73a81a9,correct,3898.800000011921,3328.300000011921,NA,NA,3328.300000011921,TRUE,1,3328.300000011921,0,3328.300000011921,250,1,-0.19626977564097245,1,0.3229840997957932
w73a81a9,empty,5832,1755.2999999970198,2726.9000000059605,NA,2726.9000000059605,TRUE,2,1755.2999999970198,2726.9000000059605,4482.20000000298,251,0,-1.063787731257111,0.5,-0.8514028108103934
w73a81a9,timeout,NA,NA,NA,NA,NA,NA,0,0,0,0,252,NA,NA,NA,NA
w73a81a9,empty,6789.79999999702,1872.2999999970198,1847,969.0999999940395,1679.7000000029802,TRUE,4,2841.3999999910593,3526.7000000029802,6368.0999999940395,253,0,-1.063787731257111,0,-1.063787731257111
w73a81a9,empty,NA,NA,NA,NA,NA,NA,0,0,0,0,254,NA,NA,NA,NA
w73a81a9,correct,3969,3125.5999999940395,NA,NA,3125.5999999940395,TRUE,1,3125.5999999940395,0,3125.5999999940395,255,1,0.8297492816736441,1,1.1504915073017292
w73a81a9,correct,2906.5,2306.0999999940395,NA,NA,2306.0999999940395,TRUE,1,2306.0999999940395,0,2306.0999999940395,256,1,0.8802435962553851,1,0.8788313858911281
w73a81a9,correct,3437.800000011921,2469.9000000059605,NA,NA,2469.9000000059605,TRUE,1,2469.9000000059605,0,2469.9000000059605,257,1,0.7896055216718141,1,1.2530879948070115
w73a81a9,correct,2768.4000000059605,2179.4000000059605,NA,NA,2179.4000000059605,TRUE,1,2179.4000000059605,0,2179.4000000059605,258,1,0.9430157270970109,1,0.6435038192713379
w73a81a9,correct,2976.800000011921,2469,NA,NA,2469,TRUE,1,2469,0,2469,259,1,0.3959543284369439,0,-1.063787731257111
w73a81a9,empty,4800.4000000059605,1538.6000000089407,1400.5,1000.2999999970198,1000.2999999970198,TRUE,3,2538.9000000059605,1400.5,3939.4000000059605,260,0,-1.063787731257111,0,-1.063787731257111
w73a81a9,empty,6963.20000000298,1501,1333.4000000059605,658.2000000029802,2801.7999999970198,TRUE,4,2159.2000000029802,4135.20000000298,6294.4000000059605,261,0,-1.063787731257111,0,-1.063787731257111
w73a81a9,timeout,NA,1527.8999999910593,3781.4000000059605,430.79999999701977,430.79999999701977,NA,3,1958.699999988079,3781.4000000059605,5740.0999999940395,262,1,0.7502484279853048,1,0.9665350082626522
w73a81a9,correct,2853.2999999970198,2414.5,NA,NA,2414.5,TRUE,1,2414.5,0,2414.5,263,1,1.183848710188044,1,1.2020231119500349
w73a81a9,empty,4300.800000011921,700.4000000059605,2639.5,NA,2639.5,FALSE,2,700.4000000059605,2639.5,3339.9000000059605,264,0,-1.063787731257111,0.5,-0.5125644610529655
w73a81a9,correct,3725.5,1290.8999999910593,1925.4000000059605,NA,1925.4000000059605,FALSE,2,1290.8999999910593,1925.4000000059605,3216.2999999970198,265,0.5,-0.4932128090092984,1,1.1896794689045003
w73a81a9,correct,3590.3999999910593,775.3999999910593,1840.1000000089407,NA,1840.1000000089407,FALSE,2,775.3999999910593,1840.1000000089407,2615.5,266,0,-1.063787731257111,1,1.3145824238521786
w6eee2df,correct,4206.300000011921,848.6999999880791,3043.800000011921,NA,3043.800000011921,FALSE,2,848.6999999880791,3043.800000011921,3892.5,267,0,-1.6496361035567226,1,0.4248784715667045
w6eee2df,correct,4923.300000011921,3806.4000000059605,NA,NA,3806.4000000059605,TRUE,1,3806.4000000059605,0,3806.4000000059605,268,1,0.3741321856664106,1,0.8363198454491768
w6eee2df,correct,4532.9000000059605,1066.5,559.7000000178814,2356.699999988079,2356.699999988079,TRUE,3,3423.199999988079,559.7000000178814,3982.9000000059605,269,1,0.5722247652703076,1,0.4423135330682818
w6eee2df,correct,2552.4000000059605,1806.4000000059605,NA,NA,1806.4000000059605,TRUE,1,1806.4000000059605,0,1806.4000000059605,270,1,0.8911433366116697,0,-1.6496361035567226
w6eee2df,correct,4149.4000000059605,713,588.3000000119209,285.09999999403954,2231.9000000059605,FALSE,4,998.0999999940395,2820.2000000178814,3818.300000011921,271,1,0.4280850575660861,1,0.7372123248611074
w6eee2df,correct,3300.300000011921,568.8000000119209,600,1226.7999999821186,1226.7999999821186,TRUE,3,1795.5999999940395,600,2395.5999999940395,272,1,0.13883970819518543,0,-1.6496361035567226
w6eee2df,correct,3083.7999999821186,551.1999999880791,674.7000000178814,1489.2999999821186,1489.2999999821186,TRUE,3,2040.4999999701977,674.7000000178814,2715.199999988079,273,1,0.20988434910789702,0,-1.6496361035567226
w6eee2df,correct,3347.5999999940395,518.2999999821186,615.5,1113.300000011921,1113.300000011921,TRUE,3,1631.5999999940395,615.5,2247.0999999940395,274,1,0.6401215028898254,0,-1.6496361035567226
w6eee2df,correct,3084.2999999821186,565.0999999940395,1685.2999999821186,NA,1685.2999999821186,FALSE,2,565.0999999940395,1685.2999999821186,2250.399999976158,275,1,0.8087349423248092,1,0.8253604548425545
w6eee2df,correct,2848.5,602.0999999940395,1510.199999988079,NA,1510.199999988079,FALSE,2,602.0999999940395,1510.199999988079,2112.2999999821186,276,1,0.4645050056940111,1,0.6539028056533369
w6eee2df,correct,3730.5999999940395,695.2000000178814,1517.7999999821186,594.3000000119209,594.3000000119209,TRUE,3,1289.5000000298023,1517.7999999821186,2807.300000011921,277,1,0.5520143962239247,1,0.805909081858796
w6eee2df,correct,3033.5999999940395,593.0999999940395,2128.9000000059605,NA,2128.9000000059605,FALSE,2,593.0999999940395,2128.9000000059605,2722,278,1,0.7987628009876173,1,0.8051082070226565
w6eee2df,correct,2570.7000000178814,752.2000000178814,496.89999997615814,842.4000000059605,842.4000000059605,TRUE,3,1594.6000000238419,496.89999997615814,2091.5,279,1,0.5772402107896102,0,-1.6496361035567226
w6eee2df,correct,3513.5999999940395,1650.800000011921,1546.5,NA,1546.5,FALSE,2,1650.800000011921,1546.5,3197.300000011921,280,1,0.3641385668164994,1,0.8539013303147654
w6eee2df,correct,3872.5999999940395,1163.0999999940395,838.5,795.8000000119209,518.0999999940395,FALSE,4,1958.9000000059605,1356.5999999940395,3315.5,281,1,-0.26337837308829504,1,-0.04586886058667287
w6eee2df,correct,3411.699999988079,690.1999999880791,357.59999999403954,936.5999999940395,936.5999999940395,TRUE,3,1626.7999999821186,357.59999999403954,1984.3999999761581,282,1,0.8946514167530956,0,-1.6496361035567226
w6eee2df,intrusion,3322.300000011921,1508.199999988079,1398.7000000178814,NA,1398.7000000178814,FALSE,2,1508.199999988079,1398.7000000178814,2906.9000000059605,283,1,0.8403871365295453,0,-1.6496361035567226
w6eee2df,correct,3240.2999999821186,691.9000000059605,578,1045,1045,TRUE,3,1736.9000000059605,578,2314.9000000059605,284,1,0.7234099117349462,0,-1.6496361035567226
w6eee2df,correct,3035.9000000059605,809.0999999940395,482.90000000596046,349.69999998807907,1110.5,FALSE,4,1158.7999999821186,1593.4000000059605,2752.199999988079,285,1,0.21074502079471016,1,0.8237213477663711
w0b76bb4,other,7260.699999988079,1701.199999988079,3600.5,NA,3600.5,FALSE,2,1701.199999988079,3600.5,5301.699999988079,286,0,-1.0295715730063149,0,-1.0295715730063149
w0b76bb4,correct,4385.300000011921,813.8999999761581,2905.600000023842,NA,2905.600000023842,FALSE,2,813.8999999761581,2905.600000023842,3719.5,287,0,-1.0295715730063149,1,0.9011114229802688
w0b76bb4,correct,3507.599999964237,592,1962.5,NA,1962.5,FALSE,2,592,1962.5,2554.5,288,1,1.1698551571252984,1,1.0795579098347587
w0b76bb4,correct,3587.5,653.8999999761581,1979.300000011921,NA,1979.300000011921,FALSE,2,653.8999999761581,1979.300000011921,2633.199999988079,289,1,0.6283383866700997,1,1.055471577200463
w0b76bb4,correct,3720,535.7000000476837,2605.099999964237,NA,2605.099999964237,FALSE,2,535.7000000476837,2605.099999964237,3140.800000011921,290,0,-1.0295715730063149,1,0.6535814095155991
w0b76bb4,empty,5225.799999952316,501.39999997615814,391.80000001192093,1931.699999988079,1931.699999988079,FALSE,3,2433.099999964237,391.80000001192093,2824.899999976158,291,1,0.8815810884818694,0,-1.0295715730063149
w0b76bb4,correct,3213.400000035763,536.3000000119209,1876.1000000238419,NA,1876.1000000238419,FALSE,2,536.3000000119209,1876.1000000238419,2412.400000035763,292,0,-1.0295715730063149,1,0.9581331816039911
w0b76bb4,correct,2400.300000011921,464.80000001192093,1335.0999999642372,NA,1335.0999999642372,FALSE,2,464.80000001192093,1335.0999999642372,1799.8999999761581,293,0,-1.0295715730063149,1,0.7485661849381766
w0b76bb4,empty,3735.399999976158,471.80000001192093,845.3000000119209,684.0999999642372,1549,FALSE,4,1155.8999999761581,2394.300000011921,3550.199999988079,294,0,-1.0295715730063149,0,-1.0295715730063149
w0b76bb4,correct,2624.399999976158,392.5999999642372,1746.699999988079,NA,1746.699999988079,FALSE,2,392.5999999642372,1746.699999988079,2139.2999999523163,295,0,-1.0295715730063149,1,0.9292315739284674
w0b76bb4,correct,4260.600000023842,485.10000002384186,354.69999998807907,2005.4000000357628,2005.4000000357628,FALSE,3,2490.5000000596046,354.69999998807907,2845.2000000476837,296,1,0.48805414107008604,1,0.9198272925305505
w0b76bb4,correct,2249.100000023842,424.5,1289.800000011921,NA,1289.800000011921,FALSE,2,424.5,1289.800000011921,1714.300000011921,297,1,0.9359326764753835,1,1.0469415925700223
w0b76bb4,correct,3469.7000000476837,569.6000000238419,351.60000002384186,1165.2999999523163,1165.2999999523163,TRUE,3,1734.8999999761581,351.60000002384186,2086.5,298,1,0.9163584113076471,0,-1.0295715730063149
w0b76bb4,correct,3101.899999976158,489.89999997615814,506.30000001192093,921,599.3999999761581,FALSE,4,1410.8999999761581,1105.699999988079,2516.599999964237,299,1,0.9488475687915056,1,0.9915885547759775
w0b76bb4,correct,3284.599999964237,432.89999997615814,829.8000000119209,1457.199999988079,1457.199999988079,TRUE,3,1890.0999999642372,829.8000000119209,2719.899999976158,300,1,0.9369863177883248,0,-1.0295715730063149
w0b76bb4,empty,2883.7999999523163,431.89999997615814,773.3000000119209,1003.8999999761581,1003.8999999761581,TRUE,3,1435.7999999523163,773.3000000119209,2209.099999964237,301,0,-1.0295715730063149,0,-1.0295715730063149
w0b76bb4,correct,2203.399999976158,491.39999997615814,444.5,772,772,TRUE,3,1263.3999999761581,444.5,1707.8999999761581,302,1,1.19822906196935,0,-1.0295715730063149
w0b76bb4,other,2541.2999999523163,452.2999999523163,1082.5,NA,1082.5,FALSE,2,452.2999999523163,1082.5,1534.7999999523163,303,0,-1.0295715730063149,0,-1.0295715730063149
w0b76bb4,correct,2092.400000035763,385.7000000476837,1311,NA,1311,FALSE,2,385.7000000476837,1311,1696.7000000476837,304,0,-1.0295715730063149,1,1.1250091079706857
webb4055,correct,2773.7999999523163,1561.2000000476837,NA,NA,1561.2000000476837,TRUE,1,1561.2000000476837,0,1561.2000000476837,305,1,-2.4664539880427876,1,0.11319018001743206
webb4055,correct,3625.7000000476837,2780.7999999523163,NA,NA,2780.7999999523163,TRUE,1,2780.7999999523163,0,2780.7999999523163,306,1,-0.2702427151928711,1,0.32811274292884945
webb4055,correct,1831.2000000476837,1527.6000001430511,NA,NA,1527.6000001430511,TRUE,1,1527.6000001430511,0,1527.6000001430511,307,1,-1.6235105994818562,1,-0.6685236034565869
webb4055,correct,1502.1000001430511,872.4000000953674,NA,NA,872.4000000953674,TRUE,1,872.4000000953674,0,872.4000000953674,308,1,-0.15702992090252815,1,0.8284641444937103
webb4055,correct,1289.9000000953674,877.4000000953674,NA,NA,877.4000000953674,TRUE,1,877.4000000953674,0,877.4000000953674,309,1,1.140545967076096,1,-0.693225062565563
webb4055,correct,1505.7000000476837,1046.5,NA,NA,1046.5,TRUE,1,1046.5,0,1046.5,310,1,1.1775812587333312,1,-0.31337986158982184
webb4055,correct,1681.7000000476837,1512.5999999046326,NA,NA,1512.5999999046326,TRUE,1,1512.5999999046326,0,1512.5999999046326,311,1,0.12741834240086705,1,0.6154800600260201
webb4055,correct,1383.6000001430511,965.9000000953674,NA,NA,965.9000000953674,TRUE,1,965.9000000953674,0,965.9000000953674,312,1,0.4229875109072857,1,-0.28837119193543914
webb4055,correct,995.6999998092651,790.2999999523163,NA,NA,790.2999999523163,TRUE,1,790.2999999523163,0,790.2999999523163,313,1,0.26826781874822747,1,0.16613175957392343
webb4055,correct,1688,1023.3999998569489,NA,NA,1023.3999998569489,TRUE,1,1023.3999998569489,0,1023.3999998569489,314,1,0.1322390202673336,1,-0.222440598259572
webb4055,correct,1355.5,1152.2000000476837,NA,NA,1152.2000000476837,TRUE,1,1152.2000000476837,0,1152.2000000476837,315,1,-1.1607365964973633,1,-2.4015103302634593
webb4055,correct,1330.3999998569489,1063.5,NA,NA,1063.5,TRUE,1,1063.5,0,1063.5,316,1,0.6544633051346779,1,1.2102665907831378
webb4055,correct,1711.5999999046326,1216.6999998092651,NA,NA,1216.6999998092651,TRUE,1,1216.6999998092651,0,1216.6999998092651,317,1,-1.1209651994550358,1,-0.7037043466621737
webb4055,correct,1288.9000000953674,1049.4000000953674,NA,NA,1049.4000000953674,TRUE,1,1049.4000000953674,0,1049.4000000953674,318,1,0.6642839010154102,1,1.1757534974209611
webb4055,correct,1064.9000000953674,764.1000001430511,NA,NA,764.1000001430511,TRUE,1,764.1000001430511,0,764.1000001430511,319,1,-0.6878221945567609,1,0.7918913146046542
webb4055,correct,1359,1106.7999999523163,NA,NA,1106.7999999523163,TRUE,1,1106.7999999523163,0,1106.7999999523163,320,1,-2.3076596624141987,1,0.8400337379921696
webb4055,correct,1813.5,1262.6000001430511,NA,NA,1262.6000001430511,TRUE,1,1262.6000001430511,0,1262.6000001430511,321,1,-0.4482981144671492,1,0.8703596114986998
webb4055,correct,1529.5,1302.0999999046326,NA,NA,1302.0999999046326,TRUE,1,1302.0999999046326,0,1302.0999999046326,322,1,0.6072899803017762,1,-0.18839694470240023
webb4055,correct,1003,816.2999999523163,NA,NA,816.2999999523163,TRUE,1,816.2999999523163,0,816.2999999523163,323,1,0.6494170571390616,1,0.6273075825712353
wf9c28f1,correct,2673.5,375.60000000009313,1123.8000000002794,NA,1123.8000000002794,FALSE,2,375.60000000009313,1123.8000000002794,1499.4000000003725,324,0,-2.029610921753298,1,0.18427388896216976
wf9c28f1,correct,3947.899999999907,518.6000000000931,608.1999999997206,1690.8000000002794,1690.8000000002794,FALSE,3,2209.4000000003725,608.1999999997206,2817.600000000093,325,1,0.6055812761653447,1,0.39760276664637745
wf9c28f1,correct,3730.399999999907,583.1000000000931,1527.6999999997206,NA,1527.6999999997206,FALSE,2,583.1000000000931,1527.6999999997206,2110.7999999998137,326,1,0.5798020042326028,1,0.30709039086512935
wf9c28f1,correct,2761.8000000002794,540.8000000002794,1476.3999999999069,NA,1476.3999999999069,FALSE,2,540.8000000002794,1476.3999999999069,2017.2000000001863,327,1,0.07058034939905927,1,0.5294922786676958
wf9c28f1,correct,2994.6999999997206,520,869.5999999996275,683.4000000003725,683.4000000003725,TRUE,3,1203.4000000003725,869.5999999996275,2073,328,1,0.520057671099021,0,-2.029610921753298
wf9c28f1,correct,2428.8000000002794,646.6000000000931,883.7000000001863,NA,883.7000000001863,FALSE,2,646.6000000000931,883.7000000001863,1530.3000000002794,329,1,0.4917681531451814,1,0.1403618889908401
wf9c28f1,correct,2345.8000000002794,602.3000000002794,1004.1999999997206,NA,1004.1999999997206,FALSE,2,602.3000000002794,1004.1999999997206,1606.5,330,1,0.5314637832298852,1,0.7048282652586827
wf9c28f1,correct,2294,524.8999999999069,1326.6000000000931,NA,1326.6000000000931,FALSE,2,524.8999999999069,1326.6000000000931,1851.5,331,1,0.6234262415159474,1,0.6382410710552933
wf9c28f1,correct,2862,461.89999999990687,1321.6000000000931,NA,1321.6000000000931,TRUE,2,461.89999999990687,1321.6000000000931,1783.5,332,1,0.47478619651796056,1,0.4523703496956618
wf9c28f1,correct,2405.100000000093,447.5,599.1999999997206,996.3000000002794,996.3000000002794,TRUE,3,1443.8000000002794,599.1999999997206,2043,333,1,0.4751157834242869,0,-2.029610921753298
wf9c28f1,correct,3275,442.60000000009313,2075.6999999997206,NA,2075.6999999997206,FALSE,2,442.60000000009313,2075.6999999997206,2518.2999999998137,334,1,0.3580758685965905,1,0.5807197391816885
wf9c28f1,correct,1948.8999999999069,545.7000000001863,669.7999999998137,NA,669.7999999998137,FALSE,2,545.7000000001863,669.7999999998137,1215.5,335,0,-2.029610921753298,1,0.7462019850579968
wf9c28f1,correct,2460.0999999996275,503,1607.5999999996275,NA,1607.5999999996275,FALSE,2,503,1607.5999999996275,2110.5999999996275,336,1,0.7992928353244348,1,0.660367709640984
wf9c28f1,correct,2206,495.59999999962747,1326.1000000000931,NA,1326.1000000000931,FALSE,2,495.59999999962747,1326.1000000000931,1821.6999999997206,337,1,0.8379042474565931,1,0.3813497605195585
wf9c28f1,correct,3285.600000000093,586.1000000000931,665.1000000000931,302.5,615.8999999999069,TRUE,5,1504.5,1173,2677.5,338,1,0.4913596558502562,1,0.592896956104779
wf9c28f1,correct,2603.5,572.6000000000931,767.8999999999069,1047.2000000001863,1047.2000000001863,TRUE,3,1619.8000000002794,767.8999999999069,2387.7000000001863,339,1,0.004099831006682697,1,0.2925501831759671
wf9c28f1,empty,8883.599999999627,526.8999999999069,2262.100000000093,735.2999999998137,1991.4000000003725,FALSE,11,4013,4691.5,8704.5,340,0,-2.029610921753298,0,-2.029610921753298
wf9c28f1,correct,2536.2000000001863,832.3999999999069,405.5,832.3000000002794,832.3000000002794,TRUE,3,1664.7000000001863,405.5,2070.2000000001863,341,1,0.08740079907508204,0,-2.029610921753298
wf9c28f1,correct,2266.1999999997206,425.60000000009313,552.1999999997206,983.2000000001863,983.2000000001863,TRUE,3,1408.8000000002794,552.1999999997206,1961,342,1,0.4629156870080945,0.5,-1.1648147159616609
w4c5f3de,intrusion,12911.599999904633,1216.2000000476837,10097.299999952316,770.7000000476837,770.7000000476837,TRUE,3,1986.9000000953674,10097.299999952316,12084.200000047684,343,0,-1.3671363124554663,0.5,-0.6723286331947469
w4c5f3de,empty,NA,NA,NA,NA,NA,NA,0,0,0,0,344,NA,NA,NA,NA
w4c5f3de,timeout,12190.900000095367,2319.0999999046326,9750.900000095367,NA,9750.900000095367,NA,2,2319.0999999046326,9750.900000095367,12070,345,1,-0.439644428994023,0.5,-1.187642697895873
w4c5f3de,correct,9092.400000095367,1050.2000000476837,7521.299999952316,NA,7521.299999952316,FALSE,2,1050.2000000476837,7521.299999952316,8571.5,346,0.5,-0.8104383996544664,1,-0.5075617376281707
w4c5f3de,correct,2231.2999999523163,1597.2999999523163,NA,NA,1597.2999999523163,TRUE,1,1597.2999999523163,0,1597.2999999523163,347,1,1.4303238529111881,1,1.7513639659653755
w4c5f3de,correct,2965,2392.5999999046326,NA,NA,2392.5999999046326,TRUE,1,2392.5999999046326,0,2392.5999999046326,348,1,1.7060451313023148,1,1.4599730263769548
w4c5f3de,correct,10206.700000047684,1139.2000000476837,8518.099999904633,NA,8518.099999904633,FALSE,2,1139.2000000476837,8518.099999904633,9657.299999952316,349,0.5,-0.4860481820102225,0.5,-1.0418139215575637
w4c5f3de,correct,7777.599999904633,2382.5999999046326,1696.5,NA,1696.5,FALSE,2,2382.5999999046326,1696.5,4079.0999999046326,350,1,0.052923860123765,1,0.2046330482970531
w4c5f3de,correct,3655,1018.5999999046326,2290.100000143051,NA,2290.100000143051,FALSE,2,1018.5999999046326,2290.100000143051,3308.7000000476837,351,0.5,-0.8808842367857266,1,-0.09812300558958591
w4c5f3de,correct,3381.5,807.2999999523163,2154.9000000953674,NA,2154.9000000953674,FALSE,2,807.2999999523163,2154.9000000953674,2962.2000000476837,352,1,-0.6302768321710006,1,-0.8119645754194247
w4c5f3de,correct,2615.399999856949,639.5999999046326,1501.2999999523163,NA,1501.2999999523163,FALSE,2,639.5999999046326,1501.2999999523163,2140.899999856949,353,1,0.3628737089425888,1,1.6882307046798177
w4c5f3de,correct,2272.4000000953674,629.2000000476837,1358.1000001430511,NA,1358.1000001430511,FALSE,2,629.2000000476837,1358.1000001430511,1987.3000001907349,354,1,-0.7483761817641218,1,1.3659400166803704
w4c5f3de,correct,2247.9000000953674,622.5,1305.5,NA,1305.5,FALSE,2,622.5,1305.5,1928,355,0.5,-1.2899764437668555,1,1.9039382728807266
w4c5f3de,correct,13436.599999904633,584.5,2004,10172.199999809265,10172.199999809265,TRUE,3,10756.699999809265,2004,12760.699999809265,356,0.5,-1.3032247491030207,0.5,-0.4267099140294945
w4c5f3de,correct,9945.700000047684,1061.7999999523163,770.0999999046326,7680.300000190735,7680.300000190735,TRUE,3,8742.100000143051,770.0999999046326,9512.200000047684,357,0.5,-0.6195702086770413,0.5,-0.7386706886435567
w4c5f3de,correct,2192.5,1726.9000000953674,NA,NA,1726.9000000953674,TRUE,1,1726.9000000953674,0,1726.9000000953674,358,1,0.6730904577703778,1,0.9648651497247501
w4c5f3de,correct,2483.5999999046326,2137.7000000476837,NA,NA,2137.7000000476837,TRUE,1,2137.7000000476837,0,2137.7000000476837,359,1,-0.42567662860996447,1,0.2995171583932966
w4c5f3de,correct,2775.2999999523163,2502.2999999523163,NA,NA,2502.2999999523163,TRUE,1,2502.2999999523163,0,2502.2999999523163,360,0.5,-0.7915051064109526,1,1.8540828452225961
w4c5f3de,correct,1440.6000001430511,1138.5,NA,NA,1138.5,TRUE,1,1138.5,0,1138.5,361,1,-0.29869610607781094,1,-0.5712003928852465
w9931506,empty,13193.299999952316,797.6999999284744,586.1000000238419,873.5,917.7999999523163,TRUE,11,5815.499999761581,6161.800000190735,11977.299999952316,362,0,-0.9490688183856125,0,-0.9490688183856125
w9931506,correct,8565.299999952316,618.2999999523163,1000.5,5910.800000071526,5910.800000071526,TRUE,3,6529.100000023842,1000.5,7529.600000023842,363,1,0.13796805755095054,1,1.3733358366485338
w9931506,correct,3835.2000000476837,609.3999999761581,1732.3000000715256,NA,1732.3000000715256,TRUE,2,609.3999999761581,1732.3000000715256,2341.7000000476837,364,1,1.6354558432185775,1,1.4880738266161313
w9931506,correct,11062.399999976158,535.1000000238419,2149.399999976158,3540.399999976158,964.2000000476837,FALSE,6,5585.600000023842,4168.899999976158,9754.5,365,0,-0.9490688183856125,0.5,0.06904920622901672
w9931506,correct,8509.399999976158,386.2000000476837,558.2999999523163,6709.5,6709.5,TRUE,3,7095.700000047684,558.2999999523163,7654,366,0.5,-0.5454717772669362,0,-0.9490688183856125
w9931506,intrusion,6737.099999904633,1479.1999999284744,2362.2000000476837,NA,2362.2000000476837,TRUE,2,1479.1999999284744,2362.2000000476837,3841.399999976158,367,0,-0.9490688183856125,1,1.0096626251413328
w9931506,correct,3980.3000000715256,663.6000000238419,2347,NA,2347,FALSE,2,663.6000000238419,2347,3010.600000023842,368,1,0.18128996969815667,1,1.8791222870691688
w9931506,correct,8789.100000023842,631.2000000476837,645,6816.5,6816.5,TRUE,3,7447.700000047684,645,8092.700000047684,369,1,0.5098554241711661,0,-0.9490688183856125
w9931506,timeout,NA,495.89999997615814,618.1000000238419,625.7000000476837,1252.8000000715256,NA,9,8576.200000047684,6540.5,15116.700000047684,370,0,-0.9490688183856125,0,-0.9490688183856125
w9931506,correct,4664.5,633.7999999523163,521.8999999761581,2527.100000023842,2527.100000023842,TRUE,3,3160.899999976158,521.8999999761581,3682.7999999523163,371,1,1.4115837177304718,0,-0.9490688183856125
w9931506,correct,3773.600000023842,648.5,2383.600000023842,NA,2383.600000023842,FALSE,2,648.5,2383.600000023842,3032.100000023842,372,0.5,-0.476076536993478,1,1.0560994503294292
w9931506,timeout,NA,740.1000000238419,1212.8999999761581,1844.7000000476837,1891.3999999761581,NA,9,10116.5,5010.100000023842,15126.600000023842,373,0,-0.9490688183856125,0.5,-0.06129617445655589
w9931506,correct,8877.700000047684,451.5,4975.200000047684,2737.6999999284744,2737.6999999284744,TRUE,3,3189.1999999284744,4975.200000047684,8164.399999976158,374,0,-0.9490688183856125,0,-0.9490688183856125
w9931506,correct,4619,592.8999999761581,533.7999999523163,3176.399999976158,3176.399999976158,TRUE,3,3769.2999999523163,533.7999999523163,4303.099999904633,375,0.5,-0.2043026255748336,0,-0.9490688183856125
w9931506,correct,7840.200000047684,536.2000000476837,648,3409.7999999523163,2684.7999999523163,FALSE,4,3946,3332.7999999523163,7278.799999952316,376,0,-0.9490688183856125,0,-0.9490688183856125
w9931506,correct,9697,527.5,8496.099999904633,NA,8496.099999904633,FALSE,2,527.5,8496.099999904633,9023.599999904633,377,1,0.1794753511421044,1,1.1505843100778987
w9931506,correct,3177.600000023842,436.39999997615814,415.7999999523163,567.2000000476837,1181.7999999523163,FALSE,4,1003.6000000238419,1597.5999999046326,2601.1999999284744,378,1,1.6848580546529015,1,0.6713264142131155
w9931506,correct,6896.199999928474,516.1000000238419,872.6999999284744,834.6000000238419,4246.899999976158,FALSE,4,1350.7000000476837,5119.599999904633,6470.299999952316,379,0,-0.9490688183856125,1,1.5531573207407348
w9931506,correct,4771.200000047684,592.6000000238419,2685.7000000476837,910.5,910.5,TRUE,3,1503.1000000238419,2685.7000000476837,4188.800000071526,380,1,0.930746514615152,0.5,-0.14940435690140536
w4445796,timeout,NA,6036.299999952316,2854.3000000715256,NA,2854.3000000715256,NA,2,6036.299999952316,2854.3000000715256,8890.600000023842,381,0,-1.579228689693926,1,0.8552222338216242
w4445796,correct,2779.1999999284744,1936.2999999523163,NA,NA,1936.2999999523163,TRUE,1,1936.2999999523163,0,1936.2999999523163,382,1,0.7341786067988524,1,0.27584537912267176
w4445796,correct,3096.100000023842,1980,NA,NA,1980,TRUE,1,1980,0,1980,383,1,0.5278969786276275,0.5,-0.7617174751159227
w4445796,correct,2352.2000000476837,1587.3999999761581,NA,NA,1587.3999999761581,TRUE,1,1587.3999999761581,0,1587.3999999761581,384,1,0.6423377061370245,0,-1.579228689693926
w4445796,other,2304.8000000715256,1713.2000000476837,NA,NA,1713.2000000476837,TRUE,1,1713.2000000476837,0,1713.2000000476837,385,0,-1.579228689693926,0,-1.579228689693926
w4445796,intrusion,5830,2898,1960.6999999284744,NA,1960.6999999284744,TRUE,2,2898,1960.6999999284744,4858.699999928474,386,0,-1.579228689693926,1,0.8522864858560439
w4445796,correct,2152.600000023842,1620.7000000476837,NA,NA,1620.7000000476837,TRUE,1,1620.7000000476837,0,1620.7000000476837,387,1,0.27775623098654834,1,0.9142749669984344
w4445796,correct,6878.600000023842,2537.5,3284.7000000476837,NA,3284.7000000476837,FALSE,2,2537.5,3284.7000000476837,5822.200000047684,388,0,-1.579228689693926,1,0.7147907523226928
w4445796,intrusion,5288.399999976158,1673.5,1805,NA,1805,TRUE,2,1673.5,1805,3478.5,389,0,-1.579228689693926,1,0.47462815338070796
w4445796,correct,4564.800000071526,2016.8000000715256,1843.7999999523163,NA,1843.7999999523163,FALSE,2,2016.8000000715256,1843.7999999523163,3860.600000023842,390,0.5,-1.0856289972389468,1,0.6104968914097051
w4445796,correct,2201.4000000953674,1554.8000000715256,NA,NA,1554.8000000715256,TRUE,1,1554.8000000715256,0,1554.8000000715256,391,1,0.2503737580344322,1,0.921034916973693
w4445796,correct,5094.699999928474,1882.8999999761581,2253,NA,2253,FALSE,2,1882.8999999761581,2253,4135.899999976158,392,0,-1.579228689693926,1,0.46340544125262856
w4445796,correct,3723.2999999523163,1622.2999999523163,1611.2000000476837,NA,1611.2000000476837,FALSE,2,1622.2999999523163,1611.2000000476837,3233.5,393,0.5,-0.8623806762908569,1,0.9626398791135677
w4445796,correct,4279.800000071526,3445.8000000715256,NA,NA,3445.8000000715256,TRUE,1,3445.8000000715256,0,3445.8000000715256,394,1,0.7353903838163796,1,0.4653724213056128
w4445796,correct,2125.7000000476837,1359,NA,NA,1359,TRUE,1,1359,0,1359,395,1,0.9045287323302731,1,0.914874144750398
w4445796,correct,2399.7999999523163,1791.1000000238419,NA,NA,1791.1000000238419,TRUE,1,1791.1000000238419,0,1791.1000000238419,396,1,0.5360881255073444,1,0.6316269477507344
w4445796,correct,1838,1351.7999999523163,NA,NA,1351.7999999523163,TRUE,1,1351.7999999523163,0,1351.7999999523163,397,1,0.7387658500134041,1,0.8276602101978435
w4445796,correct,2162.7000000476837,1649.3999999761581,NA,NA,1649.3999999761581,TRUE,1,1649.3999999761581,0,1649.3999999761581,398,1,0.6064652629154106,1,0.3424105416764731
w4445796,intrusion,5856.5,1607.8000000715256,3790,NA,3790,FALSE,2,1607.8000000715256,3790,5397.800000071526,399,0.5,-0.9646243117666001,0,-1.579228689693926
wd9fa70b,correct,3470.4000000953674,977.0999999046326,2003,NA,2003,FALSE,2,977.0999999046326,2003,2980.0999999046326,400,1,-0.19146904111975505,1,1.005944249139471
wd9fa70b,correct,3086.800000190735,2454.300000190735,NA,NA,2454.300000190735,TRUE,1,2454.300000190735,0,2454.300000190735,401,1,-0.942814679076803,1,0.739791468036937
wd9fa70b,correct,2257.5999999046326,1893.0999999046326,NA,NA,1893.0999999046326,TRUE,1,1893.0999999046326,0,1893.0999999046326,402,1,-0.7864060848972027,1,2.4856703764663988
wd9fa70b,correct,1901.0999999046326,1572.7999997138977,NA,NA,1572.7999997138977,TRUE,1,1572.7999997138977,0,1572.7999997138977,403,1,0.5056531075958478,1,1.1621098527374223
wd9fa70b,correct,1723.1999998092651,1330.3000001907349,NA,NA,1330.3000001907349,TRUE,1,1330.3000001907349,0,1330.3000001907349,404,1,-0.057519934085470154,1,-1.133446190440072
wd9fa70b,correct,1578.8000001907349,1084.7000002861023,NA,NA,1084.7000002861023,TRUE,1,1084.7000002861023,0,1084.7000002861023,405,1,1.0247436380854287,1,-0.47823132729831125
wd9fa70b,correct,2018.4000000953674,1640.4000000953674,NA,NA,1640.4000000953674,TRUE,1,1640.4000000953674,0,1640.4000000953674,406,1,0.6068238918726867,1,-3.2354789449623245
wd9fa70b,correct,1506.5999999046326,1233.4000000953674,NA,NA,1233.4000000953674,TRUE,1,1233.4000000953674,0,1233.4000000953674,407,1,-0.4967547876983453,1,-0.7334078480778505
wd9fa70b,correct,1616.9000000953674,1201.8000001907349,NA,NA,1201.8000001907349,TRUE,1,1201.8000001907349,0,1201.8000001907349,408,1,1.2381168656754384,1,0.7152245437584238
wd9fa70b,correct,1596.3999996185303,1161.1999998092651,NA,NA,1161.1999998092651,TRUE,1,1161.1999998092651,0,1161.1999998092651,409,1,-0.10663949288695605,1,0.15733404880174842
wd9fa70b,correct,1828.4000000953674,1353.5,NA,NA,1353.5,TRUE,1,1353.5,0,1353.5,410,1,-0.5461213396312148,1,0.2600821141767924
wd9fa70b,correct,1559.7000002861023,1184.8000001907349,NA,NA,1184.8000001907349,TRUE,1,1184.8000001907349,0,1184.8000001907349,411,1,0.6482737428965737,1,-1.7728644883965041
wd9fa70b,correct,1626.7999997138977,1160.0999999046326,NA,NA,1160.0999999046326,TRUE,1,1160.0999999046326,0,1160.0999999046326,412,1,-0.3288872056212295,1,0.1009069138085586
wd9fa70b,correct,1542.5999999046326,1133,NA,NA,1133,TRUE,1,1133,0,1133,413,1,0.7999109454679403,1,0.08660739928665716
wd9fa70b,correct,1868,1264.4000000953674,NA,NA,1264.4000000953674,TRUE,1,1264.4000000953674,0,1264.4000000953674,414,1,0.2933227997244105,1,0.5243012889768803
wd9fa70b,correct,1150.9000000953674,701.5,NA,NA,701.5,TRUE,1,701.5,0,701.5,415,1,0.18149751322404342,1,0.022578126661829075
wd9fa70b,correct,1538.3999996185303,1127.6999998092651,NA,NA,1127.6999998092651,TRUE,1,1127.6999998092651,0,1127.6999998092651,416,1,-1.0412975828238702,1,0.6619357252876658
wd9fa70b,correct,1255,923.3000001907349,NA,NA,923.3000001907349,TRUE,1,923.3000001907349,0,923.3000001907349,417,1,-0.2522826396945967,1,0.05989263975720679
wd9fa70b,correct,1232.5,899.2000002861023,NA,NA,899.2000002861023,TRUE,1,899.2000002861023,0,899.2000002861023,418,1,-0.8843554097688393,1,0.18933243042205858
w27c8f85,correct,8910.89999999851,1190.2999999970198,5335.70000000298,545.0999999977648,816.1000000014901,FALSE,4,1735.3999999947846,6151.80000000447,7887.199999999255,419,1,-1.0335962191057417,1,-1.4179355805787148
w27c8f85,correct,5807.10000000149,1126.4000000022352,856.6999999992549,1240.0999999977648,648.1999999992549,TRUE,5,3014.699999999255,1232.5,4247.199999999255,420,1,1.1685101069668677,1,1.4219232611039625
w27c8f85,correct,9576.5,3520.699999999255,2567.900000002235,664,1855.8999999985099,FALSE,4,4184.699999999255,4423.800000000745,8608.5,421,0.5,-0.7959483361850941,1,-0.6029753609003502
w27c8f85,correct,7407.60000000149,1127.3999999985099,3863.800000000745,NA,3863.800000000745,TRUE,2,1127.3999999985099,3863.800000000745,4991.199999999255,422,1,0.28747462178295935,1,-0.2769658619738771
w27c8f85,correct,5287.699999999255,2199.599999997765,2088.10000000149,NA,2088.10000000149,FALSE,2,2199.599999997765,2088.10000000149,4287.699999999255,423,1,-1.3874850534746852,1,1.1040396888672888
w27c8f85,correct,6399.300000000745,1719.3999999985099,3440.2000000029802,NA,3440.2000000029802,FALSE,2,1719.3999999985099,3440.2000000029802,5159.60000000149,424,1,0.14717613744962374,1,1.234653801460001
w27c8f85,correct,4495.400000002235,1159.4000000022352,983.8999999985099,1511.1000000014901,1511.1000000014901,TRUE,3,2670.5000000037253,983.8999999985099,3654.400000002235,425,1,0.7706216867499905,1,1.1179994619183737
w27c8f85,correct,3967.10000000149,727.1000000014901,2288.199999999255,NA,2288.199999999255,FALSE,2,727.1000000014901,2288.199999999255,3015.300000000745,426,0.5,-1.538755793748607,1,0.8534013980061806
w27c8f85,correct,6135.199999999255,2951.099999997765,2280,NA,2280,FALSE,2,2951.099999997765,2280,5231.099999997765,427,1,-0.4864277620782193,1,1.1478842311114457
w27c8f85,correct,5822.89999999851,1830.8999999985099,3110.900000002235,NA,3110.900000002235,FALSE,2,1830.8999999985099,3110.900000002235,4941.800000000745,428,1,0.3431116354421792,1,1.1733695391388146
w27c8f85,correct,6270.10000000149,3567,1974.9000000022352,NA,1974.9000000022352,FALSE,2,3567,1974.9000000022352,5541.900000002235,429,1,0.5549988813494972,1,0.5263497522872707
w27c8f85,timeout,NA,1519.0999999977648,1432.1000000014901,2183.89999999851,544.6999999992549,NA,8,5854.499999996275,9161.10000000149,15015.599999997765,430,1,-0.643101085999493,0.5,-1.7132335671158905
w27c8f85,correct,4455.400000002235,1103.2000000029802,896.3999999985099,1495.699999999255,1495.699999999255,TRUE,3,2598.900000002235,896.3999999985099,3495.300000000745,431,1,0.9646075702192488,1,0.43145250922635475
w27c8f85,correct,7094.199999999255,1215.199999999255,4854.699999999255,NA,4854.699999999255,FALSE,2,1215.199999999255,4854.699999999255,6069.89999999851,432,0,-2.1099581245211345,1,-0.4479436876432149
w27c8f85,correct,6118.29999999702,1159.0999999977648,4232.5,NA,4232.5,FALSE,2,1159.0999999977648,4232.5,5391.599999997765,433,1,-0.8316636444503828,1,-0.27193587544964004
w27c8f85,correct,5047.300000000745,1654.1000000014901,1423.7999999970198,1321.4000000022352,1321.4000000022352,TRUE,3,2975.5000000037253,1423.7999999970198,4399.300000000745,434,1,0.5898733817112227,1,0.007293773777766661
w27c8f85,correct,3855.599999997765,1303.5999999977648,695,1225,1225,TRUE,3,2528.599999997765,695,3223.599999997765,435,1,0.25960377156940595,0.5,-1.6552182784257978
w27c8f85,correct,3710.099999997765,991.0999999977648,616,1336,1336,TRUE,3,2327.099999997765,616,2943.099999997765,436,1,1.448218286708722,0.5,-1.0445408241215783
w27c8f85,correct,5079.20000000298,2023.4000000022352,2320.099999997765,NA,2320.099999997765,FALSE,2,2023.4000000022352,2320.099999997765,4343.5,437,1,-0.17664472465360095,1,0.13107122625103113
wacf3b96,correct,3987.4000000003725,2713.7000000001863,NA,NA,2713.7000000001863,TRUE,1,2713.7000000001863,0,2713.7000000001863,438,1,0.040554281512482776,1,0.6882880411105244
wacf3b96,correct,3646,2517.7000000001863,NA,NA,2517.7000000001863,TRUE,1,2517.7000000001863,0,2517.7000000001863,439,1,-0.1837010445089637,1,1.1694142512494137
wacf3b96,correct,2680.9000000003725,1704.9000000003725,NA,NA,1704.9000000003725,TRUE,1,1704.9000000003725,0,1704.9000000003725,440,1,0.43040460792344065,1,1.1908659353529567
wacf3b96,empty,NA,NA,NA,NA,NA,NA,0,0,0,0,441,NA,NA,NA,NA
wacf3b96,correct,2448.2000000001863,1489,NA,NA,1489,TRUE,1,1489,0,1489,442,1,-0.3653430686734473,1,-0.9002439929522619
wacf3b96,correct,3048.300000000745,1729.4000000003725,NA,NA,1729.4000000003725,TRUE,1,1729.4000000003725,0,1729.4000000003725,443,1,0.8849836735172789,1,0.9869367458930439
wacf3b96,correct,7282.100000000559,4185,2220.4000000003725,NA,2220.4000000003725,FALSE,2,4185,2220.4000000003725,6405.4000000003725,444,0,-2.013988282884219,1,0.3042837581195493
wacf3b96,correct,2301.100000000559,1382.7000000001863,NA,NA,1382.7000000001863,TRUE,1,1382.7000000001863,0,1382.7000000001863,445,1,1.0462842341346252,1,0.6853189878956225
wacf3b96,correct,2699.7999999998137,1454.5,NA,NA,1454.5,TRUE,1,1454.5,0,1454.5,446,1,0.4324563033594059,1,0.664243951225141
wacf3b96,correct,4893.5,3493.2999999998137,NA,NA,3493.2999999998137,TRUE,1,3493.2999999998137,0,3493.2999999998137,447,1,-0.9410723378015836,1,1.0512761325853
wacf3b96,correct,3441.2999999998137,1054.0999999996275,1829.5,NA,1829.5,FALSE,2,1054.0999999996275,1829.5,2883.5999999996275,448,0,-2.013988282884219,1,0.6132681968758549
wacf3b96,correct,3032.7999999998137,2464,NA,NA,2464,TRUE,1,2464,0,2464,449,1,-0.3715015312794795,1,-0.42657484697540055
wacf3b96,correct,1999.199999999255,1437.2999999998137,NA,NA,1437.2999999998137,TRUE,1,1437.2999999998137,0,1437.2999999998137,450,1,0.9652482568003309,1,-0.49186729200855606
wacf3b96,empty,2743.2999999998137,2577.5999999996275,NA,NA,2577.5999999996275,FALSE,1,2577.5999999996275,0,2577.5999999996275,451,1,0.08564696162637812,1,1.0915505834025137
wacf3b96,empty,7038.299999999814,5306.899999999441,NA,NA,5306.899999999441,FALSE,1,5306.899999999441,0,5306.899999999441,452,0.5,-0.6610862713355934,1,0.4077141739084923
wacf3b96,correct,2783.600000000559,1891.7999999998137,NA,NA,1891.7999999998137,TRUE,1,1891.7999999998137,0,1891.7999999998137,453,1,1.0524696346535878,0,-2.013988282884219
wacf3b96,intrusion,8150.700000000186,1559.7000000001863,2867.5999999996275,2783.4000000003725,2783.4000000003725,TRUE,3,4343.100000000559,2867.5999999996275,7210.700000000186,454,0,-2.013988282884219,0,-2.013988282884219
wacf3b96,correct,2659.5,1481.7000000001863,NA,NA,1481.7000000001863,TRUE,1,1481.7000000001863,0,1481.7000000001863,455,1,0.6580914703398782,1,-0.6631849833593204
wacf3b96,correct,4350.600000000559,3635.7999999998137,NA,NA,3635.7999999998137,TRUE,1,3635.7999999998137,0,3635.7999999998137,456,1,-0.2510141445518385,1,1.0308390015138977
w13c3a87,correct,7595.600000143051,1459.7999999523163,5581.800000190735,NA,5581.800000190735,FALSE,2,1459.7999999523163,5581.800000190735,7041.600000143051,457,1,-2.214134293493806,1,0.8038431289141144
w13c3a87,correct,2955.9000000953674,2417.4000000953674,NA,NA,2417.4000000953674,TRUE,1,2417.4000000953674,0,2417.4000000953674,458,1,-0.2728536062597924,1,0.6413971101903145
w13c3a87,correct,2725.9000000953674,2244.2000000476837,NA,NA,2244.2000000476837,TRUE,1,2244.2000000476837,0,2244.2000000476837,459,1,0.4137442231898704,1,0.7592746474874946
w13c3a87,correct,2007.8999998569489,1636.6999998092651,NA,NA,1636.6999998092651,TRUE,1,1636.6999998092651,0,1636.6999998092651,460,1,0.35711875873939125,1,0.7375516459844996
w13c3a87,correct,2023.3999998569489,1712.2999999523163,NA,NA,1712.2999999523163,TRUE,1,1712.2999999523163,0,1712.2999999523163,461,1,0.9638707614778973,1,0.0033286765356410303
w13c3a87,correct,2313.2000000476837,1979.7000000476837,NA,NA,1979.7000000476837,TRUE,1,1979.7000000476837,0,1979.7000000476837,462,1,-0.40036399620149377,1,0.3477502791184209
w13c3a87,correct,2786.399999856949,906.5,1400.8999998569489,NA,1400.8999998569489,FALSE,2,906.5,1400.8999998569489,2307.399999856949,463,1,-2.6521975094989068,1,0.7602233842199463
w13c3a87,correct,5212.200000047684,2182,2682.100000143051,NA,2682.100000143051,FALSE,2,2182,2682.100000143051,4864.100000143051,464,1,-1.4412901270675547,1,0.48252080693124166
w13c3a87,correct,3463.199999809265,1344.8999998569489,1770.6000001430511,NA,1770.6000001430511,FALSE,2,1344.8999998569489,1770.6000001430511,3115.5,465,1,-1.5841011361067203,1,-0.430086308888758
w13c3a87,correct,1735.7000000476837,1375.7000000476837,NA,NA,1375.7000000476837,TRUE,1,1375.7000000476837,0,1375.7000000476837,466,1,-0.2973338952163071,1,0.528639042253326
w13c3a87,correct,2824.2999999523163,853.5,1548.3999998569489,NA,1548.3999998569489,FALSE,2,853.5,1548.3999998569489,2401.899999856949,467,1,-1.7335611831569702,1,0.7635476364530124
w13c3a87,correct,1965.9000000953674,1622.9000000953674,NA,NA,1622.9000000953674,TRUE,1,1622.9000000953674,0,1622.9000000953674,468,1,0.6405373228540391,1,0.38855471265741803
w13c3a87,correct,1592.7999999523163,1270,NA,NA,1270,TRUE,1,1270,0,1270,469,1,-0.2423880819358953,1,1.0476156291504206
w13c3a87,correct,1965,1690.7999999523163,NA,NA,1690.7999999523163,TRUE,1,1690.7999999523163,0,1690.7999999523163,470,1,-0.26069498407443,1,-0.6736061496553214
w13c3a87,correct,2252.7999999523163,1446,NA,NA,1446,TRUE,1,1446,0,1446,471,1,0.521719757879929,1,0.5360585525422917
w13c3a87,correct,1497.7999999523163,1180.4000000953674,NA,NA,1180.4000000953674,TRUE,1,1180.4000000953674,0,1180.4000000953674,472,1,1.2684629672107888,1,0.5281836789968375
w13c3a87,correct,1640.7999999523163,1251.2000000476837,NA,NA,1251.2000000476837,TRUE,1,1251.2000000476837,0,1251.2000000476837,473,1,0.5854835091882876,1,-1.9533344697689456
w13c3a87,correct,1584.3999998569489,1226.8999998569489,NA,NA,1226.8999998569489,TRUE,1,1226.8999998569489,0,1226.8999998569489,474,1,0.43621863581049886,1,-1.230380731234642
w13c3a87,correct,3277.899999856949,1138.0999999046326,1819.5999999046326,NA,1819.5999999046326,FALSE,2,1138.0999999046326,1819.5999999046326,2957.699999809265,475,1,-0.6297026117775422,1,0.9957870522292778
w68066d9,intrusion,6095,2236.2999999523163,2749.0999999046326,NA,2749.0999999046326,TRUE,2,2236.2999999523163,2749.0999999046326,4985.399999856949,476,1,-0.012078888011267667,1,0.22544814278957262
w68066d9,timeout,NA,NA,NA,NA,NA,NA,0,0,0,0,477,NA,NA,NA,NA
w68066d9,correct,4674.300000190735,1205.9000000953674,2326.2000000476837,NA,2326.2000000476837,FALSE,2,1205.9000000953674,2326.2000000476837,3532.100000143051,478,1,0.03784878716551571,1,0.4146973523943667
w68066d9,correct,5560.299999952316,1807.7000000476837,2557.4000000953674,NA,2557.4000000953674,FALSE,2,1807.7000000476837,2557.4000000953674,4365.100000143051,479,0,-2.7843819310291877,1,0.1333447752924351
w68066d9,correct,5977.200000047684,1366.2000000476837,2697.4000000953674,1105,1105,TRUE,3,2471.2000000476837,2697.4000000953674,5168.600000143051,480,1,-1.3886632277194213,0,-2.7843819310291877
w68066d9,correct,2770.2999999523163,1739.8999998569489,NA,NA,1739.8999998569489,TRUE,1,1739.8999998569489,0,1739.8999998569489,481,1,0.35004856162072656,1,0.4114595523655072
w68066d9,correct,5788.5,3314.800000190735,1472.3999998569489,NA,1472.3999998569489,FALSE,2,3314.800000190735,1472.3999998569489,4787.200000047684,482,0,-2.7843819310291877,1,0.5672693368418766
w68066d9,correct,3152.100000143051,1508.5,NA,NA,1508.5,TRUE,1,1508.5,0,1508.5,483,1,0.6612756077460744,1,0.34508286584449444
w68066d9,correct,2496,1581.5,NA,NA,1581.5,TRUE,1,1581.5,0,1581.5,484,1,0.5098952234331993,0,-2.7843819310291877
w68066d9,correct,2246.9000000953674,1442.7000000476837,NA,NA,1442.7000000476837,TRUE,1,1442.7000000476837,0,1442.7000000476837,485,1,0.35930461613298775,1,0.43752939400936885
w68066d9,correct,2105.399999856949,1223.7999999523163,NA,NA,1223.7999999523163,TRUE,1,1223.7999999523163,0,1223.7999999523163,486,1,0.32340190047265505,1,0.691466083939502
w68066d9,correct,2556.4000000953674,1911.3000001907349,NA,NA,1911.3000001907349,TRUE,1,1911.3000001907349,0,1911.3000001907349,487,1,-0.10227749246375004,1,0.6170083883002703
w68066d9,correct,2618.600000143051,1922.7000000476837,NA,NA,1922.7000000476837,TRUE,1,1922.7000000476837,0,1922.7000000476837,488,1,0.32969924769959946,1,0.5896631714166435
w68066d9,correct,2197.899999856949,1652.7999999523163,NA,NA,1652.7999999523163,TRUE,1,1652.7999999523163,0,1652.7999999523163,489,1,0.5189103502944247,1,0.6119888849533749
w68066d9,intrusion,NA,NA,NA,NA,NA,NA,0,0,0,0,490,NA,NA,NA,NA
w68066d9,correct,2416.899999856949,1921.3999998569489,NA,NA,1921.3999998569489,TRUE,1,1921.3999998569489,0,1921.3999998569489,491,1,0.420875159612204,1,0.46420482049715917
w68066d9,correct,3899.2999999523163,2595.7000000476837,NA,NA,2595.7000000476837,TRUE,1,2595.7000000476837,0,2595.7000000476837,492,1,0.37160150480717097,1,0.25528951634958086
w68066d9,correct,2700.5,2102.199999809265,NA,NA,2102.199999809265,TRUE,1,2102.199999809265,0,2102.199999809265,493,1,0.1263738082100309,1,0.3034998109642448
w68066d9,correct,5821,1080.7999999523163,3850.7000000476837,NA,3850.7000000476837,FALSE,2,1080.7999999523163,3850.7000000476837,4931.5,494,1,0.6267962517018791,1,0.07568743311622807
w590723c,correct,3063.30000000156,2079.2199999995064,NA,NA,2079.2199999995064,TRUE,1,2079.2199999995064,0,2079.2199999995064,495,1,0.6379317231957184,1,0.34134898263441243
w590723c,correct,4903.834999997285,3959.869999998715,NA,NA,3959.869999998715,TRUE,1,3959.869999998715,0,3959.869999998715,496,1,0.434329801959931,1,0.11514230203686389
w590723c,correct,2519.5250000033993,1959.8150000020396,NA,NA,1959.8150000020396,TRUE,1,1959.8150000020396,0,1959.8150000020396,497,1,0.7848156786483081,1,0.4856481354014291
w590723c,correct,3903.6600000036415,1335.5050000026822,1768.1049999955576,NA,1768.1049999955576,FALSE,2,1335.5050000026822,1768.1049999955576,3103.60999999824,498,0,-2.067263205467859,1,0.5463646889664494
w590723c,correct,2207.3299999975134,1447.2699999969918,NA,NA,1447.2699999969918,TRUE,1,1447.2699999969918,0,1447.2699999969918,499,1,0.7486454035726319,1,0.4724474573972892
w590723c,correct,2087.829999996815,1455.6499999961816,NA,NA,1455.6499999961816,TRUE,1,1455.6499999961816,0,1455.6499999961816,500,1,0.04690030014578501,1,0.352883333153062
w590723c,correct,1815.2749999936204,1351.3499999972992,NA,NA,1351.3499999972992,TRUE,1,1351.3499999972992,0,1351.3499999972992,501,1,0.681659894639305,0,-2.067263205467859
w590723c,correct,2863.695000000065,895.6400000024587,1311.8699999977835,NA,1311.8699999977835,FALSE,2,895.6400000024587,1311.8699999977835,2207.510000000242,502,0,-2.067263205467859,1,0.6494145489181894
w590723c,correct,2239.4249999998137,1743.4349999966798,NA,NA,1743.4349999966798,TRUE,1,1743.4349999966798,0,1743.4349999966798,503,1,0.2935355912382184,1,0.614925771717311
w590723c,correct,1735.6450000006007,1231.5850000013597,NA,NA,1231.5850000013597,TRUE,1,1231.5850000013597,0,1231.5850000013597,504,1,0.5627474947571539,1,0.7359203660839483
w590723c,correct,3159.379999997327,695.305000001099,1896.1399999971036,NA,1896.1399999971036,FALSE,2,695.305000001099,1896.1399999971036,2591.4449999982025,505,0,-2.067263205467859,1,0.6495194893417464
w590723c,correct,2679.660000001546,687.6649999975925,1327.9249999978347,NA,1327.9249999978347,FALSE,2,687.6649999975925,1327.9249999978347,2015.5899999954272,506,0,-2.067263205467859,1,0.013727990498131814
w590723c,intrusion,2983.314999997616,655.3750000020955,1736.004999998724,NA,1736.004999998724,FALSE,2,655.3750000020955,1736.004999998724,2391.3800000008196,507,0,-2.067263205467859,0,-2.067263205467859
w590723c,correct,3079.775000005611,1015.6950000019278,1416.1099999982398,NA,1416.1099999982398,FALSE,2,1015.6950000019278,1416.1099999982398,2431.8050000001676,508,1,-0.29869620391294915,1,0.5263668220186273
w590723c,correct,1679.5599999969127,1231.6050000007963,NA,NA,1231.6050000007963,TRUE,1,1231.6050000007963,0,1231.6050000007963,509,1,0.6458036830027091,1,0.5270997172742912
w590723c,correct,2847.685000000638,823.519999998156,1520.1250000026776,NA,1520.1250000026776,FALSE,2,823.519999998156,1520.1250000026776,2343.6450000008335,510,1,-0.3399792128034146,1,0.4786397007922895
w590723c,correct,1903.5250000015367,1279.4399999984307,NA,NA,1279.4399999984307,TRUE,1,1279.4399999984307,0,1279.4399999984307,511,1,0.6023258325338787,1,0.46194044001546414
w590723c,correct,1967.5449999994598,1351.660000000149,NA,NA,1351.660000000149,TRUE,1,1351.660000000149,0,1351.660000000149,512,1,0.636629450603937,1,0.7200126233209413
w590723c,correct,3607.8049999995856,927.9449999957578,2039.855000002659,NA,2039.855000002659,FALSE,2,927.9449999957578,2039.855000002659,2967.7999999984168,513,1,-0.0953995599632038,1,0.2745918438142373
wf70aa66,correct,6568.900000095367,3012.4000000953674,2584,NA,2584,FALSE,2,3012.4000000953674,2584,5596.400000095367,514,1,0.6084011248970858,1,0.2017933202437669
wf70aa66,correct,6627.099999904633,6065.799999952316,NA,NA,6065.799999952316,TRUE,1,6065.799999952316,0,6065.799999952316,515,1,0.3029548699250593,1,0.7908910000874275
wf70aa66,correct,4610.399999856949,1458.5,889,1004.2999999523163,1004.2999999523163,TRUE,3,2462.7999999523163,889,3351.7999999523163,516,1,0.5802688359752814,0,-1.7797914308355205
wf70aa66,correct,3186.2000000476837,883.4000000953674,470.09999990463257,1058.4000000953674,1058.4000000953674,TRUE,3,1941.8000001907349,470.09999990463257,2411.9000000953674,517,1,0.7323394136496135,1,0.609331157834623
wf70aa66,correct,1843.7000000476837,1577.3999998569489,NA,NA,1577.3999998569489,TRUE,1,1577.3999998569489,0,1577.3999998569489,518,1,0.7710912876937404,1,0.5623382068677876
wf70aa66,correct,2728.100000143051,778.4000000953674,1720.0999999046326,NA,1720.0999999046326,FALSE,2,778.4000000953674,1720.0999999046326,2498.5,519,1,0.6139765626705214,1,0.5093548653236719
wf70aa66,correct,1922.6999998092651,1445.3999998569489,NA,NA,1445.3999998569489,TRUE,1,1445.3999998569489,0,1445.3999998569489,520,1,0.572004856827274,1,0.5707914033828448
wf70aa66,correct,2141.100000143051,542.2999999523163,1361.5,NA,1361.5,FALSE,2,542.2999999523163,1361.5,1903.7999999523163,521,0,-1.7797914308355205,1,0.19188711363587288
wf70aa66,empty,2781.2000000476837,532.6000001430511,1424.2999999523163,NA,1424.2999999523163,TRUE,2,532.6000001430511,1424.2999999523163,1956.9000000953674,522,0,-1.7797914308355205,1,0.5760003227261499
wf70aa66,correct,2366.5999999046326,578,1456.4000000953674,NA,1456.4000000953674,FALSE,2,578,1456.4000000953674,2034.4000000953674,523,0,-1.7797914308355205,1,0.42579807487349347
wf70aa66,correct,1632.7000000476837,1269.7999999523163,NA,NA,1269.7999999523163,TRUE,1,1269.7999999523163,0,1269.7999999523163,524,1,0.6666066193909467,1,-0.19180801627594443
wf70aa66,correct,3118,1667.5,1168.5,NA,1168.5,FALSE,2,1667.5,1168.5,2836,525,1,0.1722329448986214,1,0.6109901432680412
wf70aa66,correct,2109.600000143051,653.6000001430511,1070.0999999046326,NA,1070.0999999046326,FALSE,2,653.6000001430511,1070.0999999046326,1723.7000000476837,526,0,-1.7797914308355205,1,0.751260628217187
wf70aa66,correct,2386.2000000476837,567.4000000953674,1402.7000000476837,NA,1402.7000000476837,FALSE,2,567.4000000953674,1402.7000000476837,1970.1000001430511,527,0,-1.7797914308355205,1,0.18729615485538775
wf70aa66,correct,3820.7000000476837,870.8999998569489,1072.7000000476837,1627.4000000953674,1627.4000000953674,TRUE,3,2498.2999999523163,1072.7000000476837,3571,528,1,0.5725805741707957,0,-1.7797914308355205
wf70aa66,correct,2514.5,558,1703.7999999523163,NA,1703.7999999523163,FALSE,2,558,1703.7999999523163,2261.7999999523163,529,0,-1.7797914308355205,1,0.6499597845804925
wf70aa66,intrusion,2010,1083.4000000953674,NA,NA,1083.4000000953674,FALSE,1,1083.4000000953674,0,1083.4000000953674,530,1,0.9121478517980022,1,0.6975366935864192
wf70aa66,correct,2345.699999809265,1209.5,NA,NA,1209.5,TRUE,1,1209.5,0,1209.5,531,1,0.6753319144604965,1,0.6742150883921423
wf70aa66,correct,1472.7000000476837,1214.8000001907349,NA,NA,1214.8000001907349,TRUE,1,1214.8000001907349,0,1214.8000001907349,532,1,0.6784566323405581,1,0.6106879798278412
w8112bd2,correct,6444.299999999814,1060.6000000005588,1825.2999999998137,1141.2000000001863,1360.7999999998137,TRUE,4,2201.800000000745,3186.0999999996275,5387.9000000003725,533,1,1.277950138108879,1,0.7736798548721074
w8112bd2,correct,3949.5,996.5999999996275,616.5,1312,1312,TRUE,3,2308.5999999996275,616.5,2925.0999999996275,534,1,1.1862722378542618,0,-0.9161482580948516
w8112bd2,correct,4359.399999999441,908.5999999996275,793.7000000001863,1729.5,1729.5,TRUE,3,2638.0999999996275,793.7000000001863,3431.7999999998137,535,1,0.9723079364938038,0,-0.9161482580948516
w8112bd2,correct,4613.4000000003725,906.4000000003725,1056.5999999996275,1551.7000000001863,1551.7000000001863,TRUE,3,2458.100000000559,1056.5999999996275,3514.7000000001863,536,1,1.341394241195314,1,0.8864467110719675
w8112bd2,correct,3523.5,915.5,632.9000000003725,1088,1088,TRUE,3,2003.5,632.9000000003725,2636.4000000003725,537,1,1.186199679434597,0,-0.9161482580948516
w8112bd2,correct,4743.199999999255,786.0999999996275,2875.7000000001863,NA,2875.7000000001863,FALSE,2,786.0999999996275,2875.7000000001863,3661.7999999998137,538,0,-0.9161482580948516,1,0.9305948665714102
w8112bd2,intrusion,6768.5,872.5,965.1000000005588,3887.2999999998137,3887.2999999998137,TRUE,3,4759.799999999814,965.1000000005588,5724.9000000003725,539,0,-0.9161482580948516,0,-0.9161482580948516
w8112bd2,correct,2922.7999999998137,836.0999999996275,558.2000000001863,1001.1000000005588,1001.1000000005588,TRUE,3,1837.2000000001863,558.2000000001863,2395.4000000003725,540,1,1.141915361123388,0,-0.9161482580948516
w8112bd2,correct,6377.5999999996275,939.2999999998137,4544.0999999996275,NA,4544.0999999996275,FALSE,2,939.2999999998137,4544.0999999996275,5483.399999999441,541,0,-0.9161482580948516,1,1.000393076291824
w8112bd2,correct,3643.9000000003725,853.5,1961.2000000001863,NA,1961.2000000001863,FALSE,2,853.5,1961.2000000001863,2814.7000000001863,542,0,-0.9161482580948516,1,1.232635360781974
w8112bd2,other,6187.5999999996275,845.7999999998137,785.9000000003725,1196,1275.5999999996275,TRUE,5,3317.399999999441,2290.7000000001863,5608.0999999996275,543,0,-0.9161482580948516,0,-0.9161482580948516
w8112bd2,other,3387,850.1999999992549,728.1000000005588,945.2999999998137,945.2999999998137,TRUE,3,1795.4999999990687,728.1000000005588,2523.5999999996275,544,0,-0.9161482580948516,0,-0.9161482580948516
w8112bd2,correct,3257.5999999996275,838.5999999996275,599.2999999998137,952.9000000003725,952.9000000003725,TRUE,3,1791.5,599.2999999998137,2390.7999999998137,545,1,1.0220866788611285,0,-0.9161482580948516
w8112bd2,correct,4039.2999999998137,869.0999999996275,2353.2000000001863,NA,2353.2000000001863,FALSE,2,869.0999999996275,2353.2000000001863,3222.2999999998137,546,0,-0.9161482580948516,1,1.1972589824180233
w8112bd2,correct,3532.7000000001863,952.5,673.7000000001863,985,985,TRUE,3,1937.5,673.7000000001863,2611.2000000001863,547,1,0.9283408047770891,0,-0.9161482580948516
w8112bd2,other,4692.9000000003725,1045.1000000005588,2778.5,NA,2778.5,FALSE,2,1045.1000000005588,2778.5,3823.600000000559,548,0.5,-0.14532073384021776,0,-0.9161482580948516
w8112bd2,correct,3198.0999999996275,750.2000000001863,334.59999999962747,1227.2000000001863,1227.2000000001863,TRUE,3,1977.4000000003725,334.59999999962747,2312,549,1,1.2965322472990284,1,1.0547150403362782
w8112bd2,other,4182.700000000186,1055.5,999.6000000005588,1633.2999999998137,1633.2999999998137,TRUE,3,2688.7999999998137,999.6000000005588,3688.4000000003725,550,0,-0.9161482580948516,0,-0.9161482580948516
w8112bd2,correct,2848.2999999998137,899.2000000001863,535.5,942.7000000001863,942.7000000001863,TRUE,3,1841.9000000003725,535.5,2377.4000000003725,551,1,0.8354456690572367,0,-0.9161482580948516
w1b9a803,correct,3823.600000023842,1127.4000000953674,1984.5,NA,1984.5,FALSE,2,1127.4000000953674,1984.5,3111.9000000953674,552,0.5,-0.6056988079822239,1,0.9684996915342816
w1b9a803,correct,3959.899999976158,727.5999999046326,456.2000000476837,1775.6000000238419,1775.6000000238419,TRUE,3,2503.1999999284744,456.2000000476837,2959.399999976158,553,0.5,0.5123973575993773,1,1.1822013364398025
w1b9a803,empty,6464,776,863.7000000476837,4456.600000023842,4456.600000023842,TRUE,3,5232.600000023842,863.7000000476837,6096.300000071526,554,0,-0.8157631853870367,0,-0.8157631853870367
w1b9a803,correct,3079.5,1071.6999999284744,751.9000000953674,1016,1016,TRUE,3,2087.6999999284744,751.9000000953674,2839.600000023842,555,0.5,0.28542804227023993,0,-0.8157631853870367
w1b9a803,correct,3831.7000000476837,719.9000000953674,2079.5,NA,2079.5,FALSE,2,719.9000000953674,2079.5,2799.4000000953674,556,0.5,-0.24425785077128523,0.5,-0.5559484340345211
w1b9a803,correct,3096,1103.8000000715256,495.60000002384186,1000.5,1000.5,TRUE,3,2104.3000000715256,495.60000002384186,2599.9000000953674,557,1,1.4873496799638202,0,-0.8157631853870367
w1b9a803,correct,3159.600000023842,760,1919.6000000238419,NA,1919.6000000238419,FALSE,2,760,1919.6000000238419,2679.600000023842,558,0,-0.8157631853870367,1,1.6258496382172503
w1b9a803,correct,2311.600000023842,599.3000000715256,1312.0999999046326,NA,1312.0999999046326,FALSE,2,599.3000000715256,1312.0999999046326,1911.3999999761581,559,0.5,-0.5421902695341918,1,1.8165715510684775
w1b9a803,timeout,NA,880.1000000238419,1271.6999999284744,1936.4000000953674,9834.600000023842,NA,5,12651.100000143051,2367.4999998807907,15018.600000023842,560,1,-0.5005925218443427,0,-0.8157631853870367
w1b9a803,correct,6775.399999976158,1063.1999999284744,863.7000000476837,4600.199999928474,4600.199999928474,TRUE,3,5663.399999856949,863.7000000476837,6527.099999904633,561,1,0.3516954054706982,0,-0.8157631853870367
w1b9a803,empty,5047.599999904633,751.8999999761581,839.8999999761581,3183.7999999523163,3183.7999999523163,TRUE,3,3935.6999999284744,839.8999999761581,4775.599999904633,562,0,-0.8157631853870367,0,-0.8157631853870367
w1b9a803,correct,2983.7999999523163,775.6999999284744,1680.3000000715256,NA,1680.3000000715256,FALSE,2,775.6999999284744,1680.3000000715256,2456,563,0.5,-0.6565755010499774,0.5,-0.3667189642288902
w1b9a803,correct,2895.6999999284744,951.7999999523163,343.8000000715256,1224.0999999046326,1224.0999999046326,TRUE,3,2175.899999856949,343.8000000715256,2519.6999999284744,564,1,1.5468003367058236,0,-0.8157631853870367
w1b9a803,correct,2327.7000000476837,463.90000009536743,543.5,248.19999992847443,839.8999999761581,FALSE,4,712.1000000238419,1383.3999999761581,2095.5,565,0.5,-0.5021977686739384,1,1.6633896618717194
