wid,practice,first_seen,first_word,second_word,choice,choice_rt,typing_rt,word,response,response_rt,response_type,version,dataset,correct,rt,first_pres_time,second_pres_time,choose_first,n_pres,odd_pres,last_word,chosen_word,choose_last_seen,total_first,total_second,prop_first,raw_strength_first,strength_first,raw_strength_second,strength_second,rel_strength,chosen_strength,trial_num,typing_rt_z,phase,last_pres
w2f1698c,FALSE,left,empire,finger,left,4337.180000002263,4888.769999990473,empire,empire,5950.109999976121,correct,v3.4,old,TRUE,4888.769999990473,1709.2049999919254,784.1199999966193,TRUE,3,TRUE,empire,empire,TRUE,3553.060000005644,784.1199999966193,0.8192097169137066,-6.629375550022033,0.764703338959563,-6.627686555768514,0.7739302020305941,-0.009226863071031155,0.764703338959563,1,2.9550611722491342,early,first
w2f1698c,FALSE,left,editorial,elephant,right,2412.3250000120606,2808.2850000064354,elephant,elephant,4147.5700000009965,correct,v3.4,old,TRUE,2808.2850000064354,725.8049999945797,1686.520000017481,FALSE,2,FALSE,elephant,elephant,TRUE,725.8049999945797,1686.520000017481,0.3008736384985236,-6.974267492567482,-1.1194183633719936,-6.627049198381551,0.7774120429691075,-1.8968304063411012,0.7774120429691075,2,-0.2284368258038346,early,second
w2f1698c,FALSE,left,jeans,rebel,left,2383.6299999966286,2837.24500000244,jeans,jeans,3982.1050000027753,correct,v3.4,old,TRUE,2837.24500000244,714.414999994915,560.6249999837019,TRUE,3,TRUE,jeans,jeans,TRUE,1823.0050000129268,560.6249999837019,0.7648020036731813,-6.629808618565702,0.7623375143604064,-6.652144783388655,0.6403165341682288,0.12202098019217766,0.7623375143604064,3,-0.1841230710727973,early,first
w2f1698c,FALSE,right,well,strawberry,left,3622.139999992214,3939.654999994673,strawberry,strawberry,6845.19999998156,correct,v3.4,old,TRUE,3939.654999994673,1574.1199999756645,2048.0200000165496,FALSE,2,FALSE,strawberry,strawberry,TRUE,1574.1199999756645,2048.0200000165496,0.4345828708937391,-6.556055116407863,1.1652479825289432,-6.677531261575845,0.5016318953064572,0.663616087222486,0.5016318953064572,4,1.5027528391288016,early,second
w2f1698c,FALSE,right,tiger,tart,left,2724.5049999910407,3037.8149999887682,tart,tart,3478.6949999979697,correct,v3.4,old,TRUE,3037.8149999887682,1275.4899999999907,1449.01499999105,FALSE,2,FALSE,tart,tart,TRUE,1275.4899999999907,1449.01499999105,0.46815476572962245,-7.074005636748475,-1.6642811995831317,-6.517706677839105,1.3747429473131751,-3.039024146896307,1.3747429473131751,5,0.1227833442250101,early,second
w2f1698c,FALSE,right,suburb,sand,right,3249.7199999925215,3707.4849999917205,suburb,suburb,4668.60999999335,correct,v3.4,old,TRUE,3707.4849999917205,893.3649999962654,625.0899999868125,TRUE,3,TRUE,suburb,suburb,TRUE,2624.630000005709,625.0899999868125,0.8076480435273651,-6.874349680991447,-0.5735740161527916,-7.050710802139682,-1.5370230702260892,0.9634490540732976,-0.5735740161527916,6,1.147493017393472,early,first
w2f1698c,FALSE,left,critic,antelope,right,2931.879999989178,3235.849999997299,antelope,antelope,5143.344999989495,correct,v3.4,old,TRUE,3235.849999997299,1052.414999983739,1879.465000005439,FALSE,2,FALSE,antelope,antelope,TRUE,1052.414999983739,1879.465000005439,0.35895568713167786,-6.888283822241112,-0.6496953013822598,-6.809850155790583,-0.22121740751727892,-0.4284778938649809,-0.22121740751727892,7,0.4258107758462018,early,second
w2f1698c,FALSE,left,winner,barracuda,right,2305.6399999768473,2701.249999983702,barracuda,baracuda,4223.134999978356,correct,v3.4,old,TRUE,2701.249999983702,977.3399999830872,1328.2999999937601,FALSE,2,FALSE,barracuda,barracuda,TRUE,977.3399999830872,1328.2999999937601,0.4238909803754712,-7.223323223374133,-2.4799932264423887,-6.916160543242443,-0.8019839708153752,-1.6780092556270136,-0.8019839708153752,8,-0.3922186883486673,early,second
w2f1698c,FALSE,left,dandelion,mister,right,1752.5949999981094,2054.420000000391,mister,mister,2628.114999999525,correct,v3.4,old,TRUE,2054.420000000391,427.6850000023842,1324.9099999957252,FALSE,2,FALSE,mister,mister,TRUE,427.6850000023842,1324.9099999957252,0.2440295675856918,-6.892122696342427,-0.6706668148175231,-6.7124023514651405,0.3111334546659692,-0.9818002694834923,0.3111334546659692,9,-1.3819792538145421,early,second
w2f1698c,FALSE,left,penguin,atom,right,2626.7550000047777,2870.805000013206,atom,atom,3435.0649999978486,correct,v3.4,old,TRUE,2870.805000013206,1042.730000015581,1584.0249999891967,FALSE,2,FALSE,atom,atom,TRUE,1042.730000015581,1584.0249999891967,0.39696507668727554,-7.113893649548264,-1.8821867558112482,-6.48714213758924,1.5417149942144126,-3.423901750025661,1.5417149942144126,10,-0.1327705293098184,early,second
w2f1698c,FALSE,left,follower,cauliflower,left,2386.4149999863002,2684.5249999896623,follower,follower,4661.590000003343,correct,v3.4,old,TRUE,2684.5249999896623,781.8299999926239,814.9799999955576,TRUE,3,TRUE,follower,follower,TRUE,1571.4349999907427,814.9799999955576,0.6584919219832945,-6.973423274686831,-1.1148064573393628,-6.837520149984277,-0.3723767421742691,-0.7424297151650937,-1.1148064573393628,11,-0.41781079980290475,late,first
w2f1698c,FALSE,left,carrot,permit,left,2453.8049999973737,2763.3499999938067,carrot,carrot,3567.1799999836367,correct,v3.4,old,TRUE,2763.3499999938067,692.6699999894481,640.5749999976251,TRUE,3,TRUE,carrot,carrot,TRUE,1813.2299999997485,640.5749999976251,0.7389462487857386,-6.510030093988211,1.416679613407748,-6.853890885094146,-0.4618089773142973,1.8784885907220452,1.416679613407748,12,-0.2971950637069251,late,first
w2f1698c,FALSE,left,magazine,idol,left,2406.184999999823,2766.300000017509,magazine,magazine,3746.545000001788,correct,v3.4,old,TRUE,2766.300000017509,881.6299999889452,626.7850000003818,TRUE,3,TRUE,magazine,magazine,TRUE,1779.3999999994412,626.7850000003818,0.7395108854886769,-7.060177136690573,-1.5887370251455026,-6.741311196849503,0.15320635849773123,-1.7419433836432339,-1.5887370251455026,13,-0.2926810589581362,late,first
w2f1698c,FALSE,left,stable,chimney,left,2474.7450000140816,2800.7050000014715,stable,stable,3697.730000014417,correct,v3.4,old,TRUE,2800.7050000014715,767.695000016829,536.7299999925308,TRUE,3,TRUE,stable,stable,TRUE,1938.0150000215508,536.7299999925308,0.7831170484274231,-6.6016998090292045,0.9158940679973208,-6.726443798494659,0.23442596511083816,0.6814681028864826,0.9158940679973208,14,-0.2400355226659746,late,first
w2f1698c,FALSE,left,quill,personnel,left,2163.8899999961723,2382.5849999848288,quill,quill,3028.1449999893084,correct,v3.4,old,TRUE,2382.5849999848288,646.7649999831337,538.0200000072364,TRUE,3,TRUE,quill,quill,TRUE,1625.869999988936,538.0200000072364,0.7513644408873889,-6.504172382692282,1.448679899924152,-6.645191323838707,0.6783028203877631,0.7703770795363888,1.448679899924152,15,-0.8798306584199466,late,first
w2f1698c,FALSE,left,patient,apple,right,1793.9800000167452,2117.7850000094622,apple,apple,2622.865000012098,correct,v3.4,old,TRUE,2117.7850000094622,574.9099999957252,1219.07000002102,FALSE,2,FALSE,apple,apple,TRUE,574.9099999957252,1219.07000002102,0.32046622592802537,-6.79881208537616,-0.16091716429852831,-6.656434108565019,0.6168842365230622,-0.7778014008215905,0.6168842365230622,16,-1.2850199627468095,late,second
w2f1698c,FALSE,left,ghost,pillow,left,2498.909999994794,2959.915000014007,ghost,ghost,3599.500000011176,correct,v3.4,old,TRUE,2959.915000014007,1092.225000000326,550.7649999926798,TRUE,3,TRUE,ghost,ghost,TRUE,1948.145000002114,550.7649999926798,0.7795979046889134,-6.641357479674094,0.6992468556139589,-6.84813640012575,-0.43037260934734206,1.129619464961301,0.6992468556139589,17,0.0035830164313075514,late,first
w2f1698c,FALSE,left,daisy,crook,right,2626.7550000047777,3113.2999999972526,crook,crook,3704.230000003008,correct,v3.4,old,TRUE,3113.2999999972526,1143.3200000028592,1483.4350000019185,FALSE,2,FALSE,crook,crook,TRUE,1143.3200000028592,1483.4350000019185,0.4352594741423466,-6.6083881340797355,0.8793561938824664,-6.773412878243102,-0.022162988053591574,0.9015191819360581,-0.022162988053591574,18,0.238288308890404,late,second
w2f1698c,FALSE,left,cue,cactus,right,2284.0700000233483,2523.849999997765,cactus,cactus,3516.7900000233203,correct,v3.4,old,TRUE,2523.849999997765,603.3150000148453,1680.755000008503,FALSE,2,FALSE,cactus,cactus,TRUE,603.3150000148453,1680.755000008503,0.26414032845257723,-6.893548651077732,-0.6784567105266033,-6.6623820963235945,0.5843907757062519,-1.2628474862328551,0.5843907757062519,19,-0.6636710395139774,late,second
w9b2b2c8,FALSE,left,goat,critic,left,3496,4291,goat,goat,5281,correct,v3.4,old,TRUE,4291,1167,674,TRUE,3,TRUE,goat,goat,TRUE,2822,674,0.8072082379862701,-6.953129657367621,0.8579911481090726,-6.919779337371159,1.0690419652745053,-0.21105081716543272,0.8579911481090726,1,-0.25840395933162524,early,first
w9b2b2c8,FALSE,left,strawberry,agent,left,3134,3993,strawberry,strawberry,5729,correct,v3.4,old,TRUE,3993,1183,841,TRUE,3,TRUE,strawberry,strawberry,TRUE,2293,841,0.7316528398213146,-6.762743526200771,2.0628116285119846,-7.251023598018943,-1.0271709615726585,3.0899825900846434,2.0628116285119846,2,-0.5036408379329765,early,first
w9b2b2c8,FALSE,left,handkerchief,application,right,3503,4391,application,application,6086,correct,v3.4,old,TRUE,4391,1353,2150,FALSE,2,FALSE,application,application,TRUE,1353,2150,0.3862403654010848,-7.005636092768482,0.5257146932213539,-7.343977156799041,-1.615408931734733,2.141123624956087,-1.615408931734733,3,-0.1761097047674134,early,second
w9b2b2c8,FALSE,left,empire,neck,left,2753,3376,empire,empire,4236,correct,v3.4,old,TRUE,3376,837,712,TRUE,3,TRUE,empire,empire,TRUE,2041,712,0.7413730475844533,-6.964671404587645,0.7849515136299651,-7.149071224523621,-0.38198579572041824,1.1669373093503834,0.7849515136299651,4,-1.0113963885941637,early,first
w9b2b2c8,FALSE,left,enemy,tiger,right,4734,5416,tiger,tiger,6125,correct,v3.4,old,TRUE,5416,1787,2947,FALSE,2,FALSE,tiger,tiger,TRUE,1787,2947,0.37748204478242503,-7.138410560000632,-0.31452191653299055,-7.087659760204694,0.006644350233506059,-0.3211662667664966,0.006644350233506059,5,0.6674064045157582,early,second
w9b2b2c8,FALSE,left,patient,parrot,right,3998,4770,parrot,parrot,5833,correct,v3.4,old,TRUE,4770,1390,2608,FALSE,2,FALSE,parrot,parrot,TRUE,1390,2608,0.3476738369184592,-7.2910581304436635,-1.280521477668741,-7.23275514935586,-0.9115627449469321,-0.3689587327218089,-0.9115627449469321,6,0.13578552003094957,early,second
w9b2b2c8,FALSE,left,cue,saxophone,left,2660,3281,cue,cue,3920,correct,v3.4,old,TRUE,3281,1127,672,TRUE,3,TRUE,cue,cue,TRUE,1988,672,0.7473684210526316,-7.243022076333439,-0.9765349349776624,-6.9855329455538415,0.652933431982986,-1.6294683669606485,-0.9765349349776624,7,-1.089575930430165,early,first
w9b2b2c8,FALSE,left,fellow,cactus,right,4056,4815,cactus,cactus,6094,correct,v3.4,old,TRUE,4815,1215,2841,FALSE,2,FALSE,cactus,cactus,TRUE,1215,2841,0.2995562130177515,-7.1350162298167215,-0.2930415781398477,-6.952848132045381,0.8597727246971786,-1.1528143028370264,0.8597727246971786,8,0.1728179345848449,early,second
w9b2b2c8,FALSE,left,volunteer,seagull,right,3545,4131,seagull,seagull,5438,correct,v3.4,old,TRUE,4131,1407,2138,FALSE,2,FALSE,seagull,seagull,TRUE,1407,2138,0.3968970380818054,-7.274752298033347,-1.1773332847181202,-7.382158610360572,-1.8570326095759022,0.6796993248577821,-1.8570326095759022,9,-0.39007476663436425,early,second
w9b2b2c8,FALSE,left,tart,frog,right,3900,4496,frog,frog,5229,correct,v3.4,old,TRUE,4496,1939,1961,FALSE,2,FALSE,frog,frog,TRUE,1939,1961,0.4971794871794872,-7.031141415540808,0.3643093689624415,-7.205313353840384,-0.7379028409747286,1.10221220993717,-0.7379028409747286,10,-0.08970073747499092,early,second
w9b2b2c8,FALSE,left,follower,eagle,right,5292,5960,eagle,eagle,6895,correct,v3.4,old,TRUE,5960,2587,2705,FALSE,2,FALSE,eagle,eagle,TRUE,2587,2705,0.48885109599395316,-7.186250097678806,-0.617264844362948,-6.996247433216965,0.5851289438386151,-1.2023937882015632,0.5851289438386151,11,1.1150871493450707,late,second
w9b2b2c8,FALSE,left,apple,lover,right,2845,3596,lover,lover,4350,correct,v3.4,old,TRUE,3596,1235,1610,FALSE,2,FALSE,lover,lover,TRUE,1235,1610,0.43409490333919154,-6.962758263918812,0.7970584409863584,-6.7262443463879675,2.2937893740381856,-1.4967309330518273,2.2937893740381856,12,-0.8303490285528977,late,second
w9b2b2c8,FALSE,left,baby,stranger,left,3151,3809,baby,baby,4462,correct,v3.4,old,TRUE,3809,1189,979,TRUE,3,TRUE,baby,baby,TRUE,2172,979,0.6893049825452238,-7.232948117979821,-0.9127839082154865,-7.096651285861685,-0.050256718112259194,-0.8625271901032273,-0.9127839082154865,13,-0.6550622663311264,late,first
w9b2b2c8,FALSE,left,department,elephant,right,5661,6457,elephant,elephant,7793,correct,v3.4,old,TRUE,6457,1052,4609,FALSE,2,FALSE,elephant,elephant,TRUE,1052,4609,0.18583289171524467,-6.979018582613435,0.6941582724652028,-6.877462348805732,1.3368365476851332,-0.6426782752199304,1.3368365476851332,14,1.5240895945292037,late,second
w9b2b2c8,FALSE,left,virus,horse,left,2836,3513,virus,virus,4291,correct,v3.4,old,TRUE,3513,1218,685,TRUE,3,TRUE,virus,virus,TRUE,2151,685,0.7584626234132581,-7.0269856508026445,0.3906082933514638,-6.984632175982574,0.6586337717132786,-0.26802547836181484,0.3906082933514638,15,-0.8986532598411935,late,first
w9b2b2c8,FALSE,left,tulip,community,right,5435,5915,community,community,7722,correct,v3.4,old,TRUE,5915,1868,3567,FALSE,2,FALSE,community,community,TRUE,1868,3567,0.3436982520699172,-6.956817883777614,0.8346509463418152,-7.031021310576752,0.3650694291601348,0.46958151718168045,0.3650694291601348,16,1.0780547347911753,late,second
w9b2b2c8,FALSE,left,cauliflower,consumer,right,3895,4352,consumer,consumer,5429,correct,v3.4,old,TRUE,4352,1018,2877,FALSE,2,FALSE,consumer,consumer,TRUE,1018,2877,0.2613607188703466,-7.161759860338931,-0.4622832848545464,-7.031429159431191,0.362488439411955,-0.8247717242665014,0.362488439411955,17,-0.20820446404745602,late,second
w9b2b2c8,FALSE,left,villain,walrus,left,2508,3180,villain,villain,5248,correct,v3.4,old,TRUE,3180,1106,601,TRUE,3,TRUE,villain,villain,TRUE,1907,601,0.7603668261562998,-7.300327017277255,-1.339177770641372,-7.251217557005487,-1.0283983921523652,-0.3107793784890067,-1.339177770641372,18,-1.172693127540019,late,first
w9b2b2c8,FALSE,left,daisy,major,right,7347,7753,major,major,8494,correct,v3.4,old,TRUE,7753,1441,5906,FALSE,2,FALSE,major,major,TRUE,1441,5906,0.19613447665713896,-7.347139963871301,-1.635424122509752,-6.97737879259234,0.7045353550229854,-2.3399594775327373,0.7045353550229854,19,2.5906231336813894,late,second
w6411e6d,FALSE,NA,NA,NA,left,NA,NA,baby,baby,NA,correct,v3.4,old,TRUE,NA,NA,NA,NA,0,FALSE,NA,NA,NA,0,0,NA,NA,NA,NA,NA,NA,NA,1,NA,early,second
w6411e6d,FALSE,NA,NA,NA,left,NA,NA,ear,electron,NA,intrusion,v3.4,old,FALSE,NA,NA,NA,NA,0,FALSE,NA,NA,NA,0,0,NA,NA,NA,NA,NA,NA,NA,2,NA,early,second
w6411e6d,FALSE,left,carrot,roost,left,3284.2849999996834,3649.7049999998417,carrot,baby,4185.76500000013,intrusion,v3.4,old,FALSE,3649.7049999998417,3284.2849999996834,NA,TRUE,1,TRUE,carrot,carrot,TRUE,3284.2849999996834,0,1,-6.671752931159814,0.5439035318692466,-6.871229599932845,-0.19126731883639372,0.7351708507056403,0.5439035318692466,3,0.8945439420134694,early,first
w6411e6d,FALSE,left,stairs,empire,left,3635.3300000000745,3937.6700000002747,stairs,empire,6174.485000000452,intrusion,v3.4,old,FALSE,3937.6700000002747,1298.7449999999953,2336.585000000079,TRUE,2,FALSE,empire,stairs,FALSE,1298.7449999999953,2336.585000000079,0.3572564251388371,-6.816486043379124,0.010489945759017977,-7.099290858988765,-1.0317866179826598,1.0422765637416778,0.010489945759017977,4,1.1664177835071134,early,second
w6411e6d,FALSE,right,strawberry,idol,right,2308.9550000004238,2819.4750000002095,strawberry,strawberry,4528.245000000461,correct,v3.4,old,TRUE,2819.4750000002095,2308.9550000004238,NA,TRUE,1,TRUE,strawberry,strawberry,TRUE,2308.9550000004238,0,1,-6.763630551820821,0.205288750713974,-6.893362057184375,-0.2728364443180668,0.4781251950320408,0.205288750713974,5,0.11070625540978982,early,first
w6411e6d,FALSE,right,major,bug,right,1793.8750000003492,2212.5850000001956,major,major,2747.8550000005635,correct,v3.4,old,TRUE,2212.5850000001956,1793.8750000003492,NA,TRUE,1,TRUE,major,major,TRUE,1793.8750000003492,0,1,-6.755308645313173,0.235959119957415,-6.340607543184983,1.7643391752060946,-1.5283800552486797,0.235959119957415,6,-0.4622714177929719,early,first
w6411e6d,FALSE,right,community,banana,right,1725.6749999996973,2091.744999999646,community,community,2903.699999999837,correct,v3.4,old,TRUE,2091.744999999646,1725.6749999996973,NA,TRUE,1,TRUE,community,community,TRUE,1725.6749999996973,0,1,-6.788453351946098,0.11380437212852774,-6.601110675704973,0.8042554184229171,-0.6904510462943894,0.11380437212852774,7,-0.5763590152655533,early,first
w6411e6d,FALSE,right,shoelace,hero,right,2369.404999999446,2719.234999999637,shoelace,shoelace,3585.4149999995716,correct,v3.4,old,TRUE,2719.234999999637,2369.404999999446,NA,TRUE,1,TRUE,shoelace,shoelace,TRUE,2369.404999999446,0,1,-7.045739652799194,-0.8344237581912934,-6.987840446703513,-0.6210363537275907,-0.21338740446370275,-0.8344237581912934,8,0.016067553236131186,early,first
w6411e6d,FALSE,right,scapegoat,magazine,right,1462.410000000149,1850.7399999998743,scapegoat,scapegoat,3100.9650000005495,correct,v3.4,old,TRUE,1850.7399999998743,1462.410000000149,NA,TRUE,1,TRUE,scapegoat,scapegoat,TRUE,1462.410000000149,0,1,-6.699964525375761,0.4399297596628383,-7.404380240158559,-2.1561929020632267,2.596122661726065,0.4399297596628383,9,-0.803896928446027,early,first
w6411e6d,FALSE,right,keeper,neck,left,4639.959999999497,4985.604999999865,neck,neck,5409.34999999986,correct,v3.4,old,TRUE,4985.604999999865,2230.4050000002608,2409.5549999992363,FALSE,2,FALSE,neck,neck,TRUE,2230.4050000002608,2409.5549999992363,0.4806948766800797,-6.805222594471385,0.052001363441673325,-7.357315018697838,-1.9827341255919935,2.034735489033667,-1.9827341255919935,10,2.1557953609387526,early,second
w6411e6d,FALSE,left,tulip,virus,left,1417.1450000003679,1854.115000000107,tulip,tulip,3209.8900000001304,correct,v3.4,old,TRUE,1854.115000000107,1417.1450000003679,NA,TRUE,1,TRUE,tulip,tulip,TRUE,1417.1450000003679,0,1,-6.606090354938035,0.7859028208959498,-6.873518350697882,-0.1997025050530829,0.9856053259490327,0.7859028208959498,11,-0.8007105196286257,late,first
w6411e6d,FALSE,left,electron,cookie,left,1510.8549999995157,1786.8799999996554,electron,electron,2728.844999999623,correct,v3.4,old,TRUE,1786.8799999996554,514.5349999993341,472.29000000061933,TRUE,3,TRUE,electron,electron,TRUE,1038.5649999988964,472.29000000061933,0.6874021663225321,-6.577466909594806,0.8913944695811988,-7.041616875448692,-0.8192292707824069,1.7106237403636058,0.8913944695811988,12,-0.8641885038729625,late,first
w6411e6d,FALSE,left,personnel,finger,right,2398.6349999995437,2665.425000000163,finger,finger,3178.5,correct,v3.4,old,TRUE,2665.425000000163,685.7499999996508,1712.884999999893,FALSE,2,FALSE,finger,finger,TRUE,685.7499999996508,1712.884999999893,0.2858917676094034,-6.86637725410664,-0.1733840083173654,-6.7259406452508905,0.34419482352171304,-0.5175788318390784,0.34419482352171304,13,-0.034735604823382726,late,second
w6411e6d,FALSE,right,enemy,jeans,right,1972.104999999865,2277.1950000006473,enemy,enemy,2741.355000000098,correct,v3.4,old,TRUE,2277.1950000006473,414.085000000312,405.22499999951106,TRUE,3,TRUE,enemy,enemy,TRUE,1566.880000000354,405.22499999951106,0.7945215898750123,-6.731738491823269,0.32282687195577686,-7.072968240313711,-0.9347746612301696,1.2576015331859465,0.32282687195577686,14,-0.4012717515175539,late,first
w6411e6d,FALSE,right,department,penguin,left,2107.5200000004843,2441.190000000526,penguin,penguin,3241.32500000007,correct,v3.4,old,TRUE,2441.190000000526,650.9550000000745,1456.5650000004098,FALSE,2,FALSE,penguin,penguin,TRUE,650.9550000000745,1456.5650000004098,0.3088725136653151,-6.782983945168501,0.13396185950925185,-6.6740392581740835,0.5354772783810031,-0.40151541887175124,0.5354772783810031,15,-0.24644060663657819,late,second
w6411e6d,FALSE,left,apple,villain,left,1229.0299999994459,1578.734999999986,apple,apple,1970.6649999998044,correct,v3.4,old,TRUE,1578.734999999986,1229.0299999994459,NA,TRUE,1,TRUE,apple,apple,TRUE,1229.0299999994459,0,1,-6.531217499382363,1.0618465753821194,-6.439961455710017,1.398170535829668,-0.33632396044754875,1.0618465753821194,16,-1.0607025966881294,late,first
w6411e6d,FALSE,left,critic,flower,left,4692.810000000405,4939.910000000033,critic,editorial,6467.894999999786,intrusion,v3.4,old,FALSE,4939.910000000033,428.1650000002701,807.9399999997113,TRUE,3,TRUE,critic,critic,TRUE,3884.870000000694,807.9399999997113,0.8278344957499576,-6.857257839514428,-0.1397744246756727,-7.727945950135547,-3.3486936577963067,3.2089192331206338,-0.1397744246756727,17,2.112653745857101,late,first
w6411e6d,FALSE,left,stranger,tiger,left,1729.7349999998696,1878.604999999865,stranger,empire,2347.944999999483,intrusion,v3.4,old,FALSE,1878.604999999865,410.84499999939,260.33499999996275,TRUE,3,TRUE,stranger,stranger,TRUE,1469.3999999999069,260.33499999996275,0.8494942866971054,-6.759028054378393,0.22225124553069975,-6.7032542538505515,0.4278054721645643,-0.20555422663386458,0.22225124553069975,18,-0.7775889931302543,late,first
w6411e6d,FALSE,left,tractor,application,right,2010.0350000002654,2248.864999999525,application,application,3496.0099999997765,correct,v3.4,old,TRUE,2248.864999999525,414.9799999995157,1595.0550000007497,FALSE,2,FALSE,application,application,TRUE,414.9799999995157,1595.0550000007497,0.2064541164703405,-7.018645703015195,-0.7345690622301222,-6.814309257046877,0.01851248728994346,-0.7530815495200657,0.01851248728994346,19,-0.42801870316031765,late,second
w4425c9d,FALSE,NA,NA,NA,left,NA,NA,major,flowe,NA,intrusion,v3.4,old,FALSE,NA,NA,NA,NA,0,FALSE,NA,NA,NA,0,0,NA,NA,NA,NA,NA,NA,NA,1,NA,early,second
w4425c9d,FALSE,right,villain,saxophone,right,3548.9400000078604,4062.8800000122283,villain,villain,5021.169999992708,correct,v3.4,old,TRUE,4062.8800000122283,1116.8199999956414,513.7350000150036,TRUE,3,TRUE,villain,villain,TRUE,3035.2049999928568,513.7350000150036,0.8552426921802381,-7.25712595749203,-1.4986776048479904,-6.522729228856251,1.5744212517795675,-3.073098856627558,-1.4986776048479904,2,-0.0490100224582199,early,first
w4425c9d,FALSE,left,tread,stairs,right,7233.670000015991,8561.40000000596,stairs,stairs,9487.885000009555,correct,v3.4,old,TRUE,8561.40000000596,1103.5650000267196,1153.7749999843072,FALSE,6,FALSE,stairs,stairs,TRUE,3153.6250000062864,4080.0450000097044,0.43596473159534715,-7.107149821873211,-0.8710992498248575,-6.571905854305099,1.368640608229609,-2.2397398580544667,1.368640608229609,3,2.847288330170866,early,second
w4425c9d,FALSE,left,gravel,crook,right,5726.555000001099,6029.714999982389,crook,crook,7036.339999991469,correct,v3.4,old,TRUE,6029.714999982389,1006.0799999919254,1069.9550000135787,FALSE,6,FALSE,crook,crook,TRUE,2831.9749999791384,2894.5800000219606,0.49453379911283396,-6.86581540609757,0.13876978725907144,-6.633626436864718,1.1103695072040198,-0.9715997199449484,1.1103695072040198,4,1.2173044477041315,early,second
w4425c9d,FALSE,NA,NA,NA,left,NA,NA,rouge,gravel,NA,intrusion,v3.4,old,FALSE,NA,NA,NA,NA,0,FALSE,NA,NA,NA,0,0,NA,NA,NA,NA,NA,NA,NA,5,NA,early,second
w4425c9d,FALSE,right,lover,walrus,left,3314.299999998184,3938.5049999982584,walrus,walrus,4991.339999978663,correct,v3.4,old,TRUE,3938.5049999982584,768.8900000066496,544.7199999762233,FALSE,4,FALSE,walrus,walrus,TRUE,1120.31000002753,2193.989999970654,0.3380231119778366,-6.588618626294348,1.2987056555145466,-6.739722958292515,0.6664063385532173,0.6322993169613293,0.6664063385532173,6,-0.12908682719604594,early,second
w4425c9d,FALSE,right,tractor,keeper,right,4286.575000005541,4575.795000011567,tractor,tractor,5741.665000008652,correct,v3.4,old,TRUE,4575.795000011567,622.7599999983795,768.0399999953806,TRUE,5,TRUE,tractor,tractor,TRUE,2781.7550000327174,1504.819999972824,0.6489458367179208,-6.826678722818854,0.3025380775392232,-6.826244393648669,0.3043555372639881,-0.001817459724764936,0.3025380775392232,7,0.2812218914910128,early,first
w4425c9d,FALSE,left,jeans,virus,right,2047.4050000193529,2336.0500000126194,virus,virus,2893.96499999566,correct,v3.4,old,TRUE,2336.0500000126194,671.6100000194274,1375.7949999999255,FALSE,2,FALSE,virus,virus,TRUE,671.6100000194274,1375.7949999999255,0.32802987196625927,-6.773141584798189,0.5265653794364403,-6.911287438478956,-0.051508907172683596,0.578074286609124,-0.051508907172683596,8,-1.1608012080651129,early,second
w4425c9d,FALSE,left,territory,ear,right,2525.0450000166893,2877.44000001112,ear,ear,3483.700000011595,correct,v3.4,old,TRUE,2877.44000001112,461.379999993369,495.35500002093613,FALSE,4,FALSE,ear,ear,TRUE,894.6199999772944,1630.425000039395,0.3542986362505941,-7.6615155991117705,-3.190854730421734,-6.9764843353078545,-0.3243267197911259,-2.866528010630608,-0.3243267197911259,9,-0.8122361321895576,early,second
w4425c9d,FALSE,left,handkerchief,community,right,1855.0699999905191,2301.1750000005122,community,community,3900.0099999830127,correct,v3.4,old,TRUE,2301.1750000005122,733.5149999998976,1121.5549999906216,FALSE,2,FALSE,community,community,TRUE,733.5149999998976,1121.5549999906216,0.39541095484464006,-6.853951623300692,0.18841404073510346,-6.74037372478942,0.6636831921943191,-0.47526915145921567,0.6636831921943191,10,-1.1832549050772736,early,second
w4425c9d,FALSE,left,octopus,empire,right,3645.4950000043027,4046.375000005355,empire,empire,4860.205000004498,correct,v3.4,old,TRUE,4046.375000005355,1101.6600000148173,976.6700000036508,FALSE,4,FALSE,empire,empire,TRUE,2316.7950000206474,1328.6999999836553,0.6355227479444939,-6.6119955664568035,1.2008843481972575,-6.655260742275672,1.0198402923669168,0.18104405583034078,1.0198402923669168,11,-0.05963649612736362,late,second
w4425c9d,FALSE,left,hero,horse,right,2574.575000006007,3950.8400000049733,horse,horse,4925.76499999268,correct,v3.4,old,TRUE,3950.8400000049733,717.4949999898672,1489.0500000037719,FALSE,3,TRUE,hero,horse,FALSE,1085.5250000022352,1489.0500000037719,0.42163269665855624,-6.895826917166564,0.013185975736499838,-6.817246872255733,0.3420058584418568,-0.328819882705357,0.3420058584418568,12,-0.12114513966344018,late,first
w4425c9d,FALSE,left,pizza,donor,left,3471.7900000105146,4541.755000012927,pizza,pizza,5309.88499999512,correct,v3.4,old,TRUE,4541.755000012927,751.589999999851,1392.855000012787,TRUE,3,TRUE,pizza,pizza,TRUE,2078.9349999977276,1392.855000012787,0.5988078195949154,-7.126523359788052,-0.9521682346030521,-7.008734315786922,-0.45927745455350333,-0.4928907800495488,-0.9521682346030521,13,0.2593057955484154,late,first
w4425c9d,FALSE,NA,NA,NA,right,NA,NA,scapegoat,winner,NA,intrusion,v3.4,old,FALSE,NA,NA,NA,NA,0,FALSE,NA,NA,NA,0,0,NA,NA,NA,NA,NA,NA,NA,14,NA,late,second
w4425c9d,FALSE,left,captive,goat,right,3342.8549999953248,3678.199999994831,goat,goat,4204.935000016121,correct,v3.4,old,TRUE,3678.199999994831,878.6850000033155,1215.5400000046939,FALSE,4,FALSE,goat,goat,TRUE,1246.725000004517,2096.129999990808,0.3729521621506947,-6.93665821633374,-0.15767347106190444,-6.728409699831189,0.7137469111437535,-0.871420382205658,0.7137469111437535,15,-0.29667993397162795,late,second
w4425c9d,FALSE,left,flower,winner,right,4959.875000000466,5487.150000000838,winner,winner,6557.870000018738,correct,v3.4,old,TRUE,5487.150000000838,2288.265000010142,1615.0250000064261,FALSE,4,FALSE,winner,winner,TRUE,2897.270000015851,2062.6049999846146,0.584141737446121,-7.20634835631119,-1.2861976440221843,-7.093635659039668,-0.8145489457008366,-0.4716486983213477,-0.8145489457008366,16,0.8679828673526038,late,second
w4425c9d,FALSE,left,cauliflower,grizzly,left,3086.2900000065565,3583.090000000084,cauliflower,cauliflower,5741.77000002237,correct,v3.4,old,TRUE,3583.090000000084,1039.0800000168383,831.0749999945983,TRUE,3,TRUE,cauliflower,cauliflower,TRUE,2255.215000011958,831.0749999945983,0.7307203794870758,-7.0853339691162365,-0.7798103462259107,-6.847472981966083,0.21552405430347935,-0.99533440052939,-0.7798103462259107,17,-0.3579149482215863,late,first
w4425c9d,FALSE,left,barracuda,enemy,left,2672.725000011269,3167.2700000053737,barracuda,barracuda,4909.255000005942,correct,v3.4,old,TRUE,3167.2700000053737,719.3550000083633,655.7399999874178,TRUE,3,TRUE,barracuda,barracuda,TRUE,2016.9850000238512,655.7399999874178,0.7546548934197671,-6.6678491588643745,0.9671637932526645,-7.3370294834228815,-1.8330356222573936,2.800199415510058,0.9671637932526645,18,-0.6256338382068667,late,first
w4425c9d,FALSE,left,vagrant,finger,right,2494.8699999949895,3086.394999991171,finger,finer,3757.244999986142,other,v3.4,old,FALSE,3086.394999991171,990.55999997654,1504.3100000184495,FALSE,2,FALSE,finger,finger,TRUE,990.55999997654,1504.3100000184495,0.39703872345193514,-6.976930365071586,-0.32619314090044976,-6.866563094031864,0.13564107106740014,-0.4618342119678499,0.13564107106740014,19,-0.6777038810899346,late,second
wd0aa475,FALSE,NA,NA,NA,left,NA,NA,frog,barracuda,NA,intrusion,v3.4,old,FALSE,NA,NA,NA,NA,0,FALSE,NA,NA,NA,0,0,NA,NA,NA,NA,NA,NA,NA,1,NA,early,second
wd0aa475,FALSE,left,critic,banana,left,2776.9700000062585,3563.964999979362,critic,rogue,7666.290000081062,other,v3.4,old,FALSE,3563.964999979362,2776.9700000062585,NA,TRUE,1,TRUE,critic,critic,TRUE,2776.9700000062585,0,1,-7.771200693335441,-1.448197083188345,-7.4291255406571555,-0.30709858650240396,-1.1410984966859412,-1.448197083188345,2,0.4286597002233981,early,first
wd0aa475,FALSE,right,pig,fellow,right,4519.325000001118,4772.859999909997,pig,pig,6955.860000103712,correct,v3.4,old,TRUE,4772.859999909997,4519.325000001118,NA,TRUE,1,TRUE,pig,pig,TRUE,4519.325000001118,0,1,-7.188128026253655,0.496823882691131,-6.979309051874568,1.1934047827589476,-0.6965809000678166,0.496823882691131,3,1.3413120978863287,early,first
wd0aa475,FALSE,right,rebel,quill,right,5183.949999976903,5707.829999970272,rebel,rogue,6341.320000123233,other,v3.4,old,FALSE,5707.829999970272,5183.949999976903,NA,TRUE,1,TRUE,rebel,rebel,TRUE,5183.949999976903,0,1,-7.825546958799381,-1.6294860231649964,-7.145854356650249,0.6378409090847793,-2.2673269322497758,-1.6294860231649964,4,2.0471654700542024,early,first
wd0aa475,FALSE,NA,NA,NA,left,NA,NA,cue,NA,NA,empty,v3.4,old,FALSE,NA,NA,NA,NA,0,FALSE,NA,NA,NA,0,0,NA,NA,NA,NA,NA,NA,NA,5,NA,early,second
wd0aa475,FALSE,left,cookie,captive,left,4387.854999862611,4939.429999794811,cookie,critic,5533.68499991484,intrusion,v3.4,old,FALSE,4939.429999794811,4387.854999862611,NA,TRUE,1,TRUE,cookie,cookie,TRUE,4387.854999862611,0,1,-7.386173283100187,-0.16381791807683332,-7.386200033365419,-0.16390715194022115,8.923386338782757e-5,-0.16381791807683332,6,1.4670637221235967,early,first
wd0aa475,FALSE,right,daisy,scapegoat,left,1529.9099998082966,1707.7749997843057,scapegoat,dandelion,6224.019999848679,intrusion,v3.4,old,FALSE,1707.7749997843057,1529.9099998082966,NA,FALSE,1,TRUE,daisy,scapegoat,FALSE,1529.9099998082966,0,1,-7.939409368653782,-2.0093096487531708,-6.953332182098326,1.2800587440835054,-3.289368392836676,1.2800587440835054,7,-0.9726665144546147,early,first
wd0aa475,FALSE,right,jeans,rouge,right,3775.099999969825,4295.384999830276,jeans,jeans,4757.729999953881,correct,v3.4,old,TRUE,4295.384999830276,2674.8599999118596,1100.2400000579655,TRUE,2,FALSE,rouge,jeans,FALSE,2674.8599999118596,1100.2400000579655,0.7085534157858706,-7.065471161195233,0.9059841599884676,-6.759683861492974,1.9260331909219295,-1.0200490309334618,0.9059841599884676,8,0.9808434850854904,early,second
wd0aa475,FALSE,right,tart,seagull,right,2001.2199999764562,2511.9400001131,tart,tarts,3020.0000000186265,correct,v3.4,old,TRUE,2511.9400001131,2001.2199999764562,NA,TRUE,1,TRUE,tart,tart,TRUE,2001.2199999764562,0,1,-7.0894121283235245,0.8261215877279381,-7.27745949842254,0.19883086039604114,0.627290727331897,0.8261215877279381,9,-0.36556406493766175,early,first
wd0aa475,FALSE,right,tulip,roost,right,2414.630000013858,2932.8749999403954,tulip,tulip,4632.634999928996,correct,v3.4,old,TRUE,2932.8749999403954,2414.630000013858,NA,TRUE,1,TRUE,tulip,tulip,TRUE,2414.630000013858,0,1,-7.103261284336449,0.7799234029636088,-7.189006847923964,0.49389229856702016,0.2860311043965887,0.7799234029636088,10,-0.04778019051128928,early,first
wd0aa475,FALSE,right,donor,pillow,right,1765.235000057146,2097.5450000260025,donor,donor,2566.435000160709,correct,v3.4,old,TRUE,2097.5450000260025,1765.235000057146,NA,TRUE,1,TRUE,donor,donor,TRUE,1765.235000057146,0,1,-7.715247588970512,-1.261548030265815,-7.282899717175134,0.18068331184823436,-1.4422313421140494,-1.261548030265815,11,-0.6784105821543929,late,first
wd0aa475,FALSE,right,antelope,editorial,right,1731.2449999153614,2063.4200000204146,antelope,antelope,4587.319999933243,correct,v3.4,old,TRUE,2063.4200000204146,1731.2449999153614,NA,TRUE,1,TRUE,antelope,antelope,TRUE,1731.2449999153614,0,1,-6.9361025321708345,1.3375336219773009,-6.952087106999194,1.2842120808948962,0.05332154108240461,1.3375336219773009,12,-0.7041731695396781,late,first
wd0aa475,FALSE,right,finger,patient,right,1730.1499999593943,2016.6299999691546,finger,finger,2607.280000112951,correct,v3.4,old,TRUE,2016.6299999691546,1730.1499999593943,NA,TRUE,1,TRUE,finger,finger,TRUE,1730.1499999593943,0,1,-7.585437347596645,-0.8285254323764294,-7.3418495574310105,-0.015962289474118558,-0.8125631429023108,-0.8285254323764294,13,-0.739497168510541,late,first
wd0aa475,FALSE,right,dandelion,tread,right,1920.4949999693781,2323.9100000355393,dandelion,tiger,2700.7199998479337,intrusion,v3.4,old,FALSE,2323.9100000355393,1920.4949999693781,NA,TRUE,1,TRUE,dandelion,dandelion,TRUE,1920.4949999693781,0,1,-7.568395944022544,-0.7716785089808775,-7.24393561487241,0.3106602429823428,-1.0823387519632204,-0.7716785089808775,14,-0.5075168651504124,late,first
wd0aa475,FALSE,right,idol,walrus,right,1140.784999821335,1379.4899999629706,idol,idol,1876.5149998944253,correct,v3.4,old,TRUE,1379.4899999629706,1140.784999821335,NA,TRUE,1,TRUE,idol,idol,TRUE,1140.784999821335,0,1,-6.9063569025612805,1.4367594586529078,-7.519752231845791,-0.6094122163152998,2.0461716749682077,1.4367594586529078,15,-1.2205044922946318,late,first
wd0aa475,FALSE,right,elbow,territory,right,3551.8749998882413,3894.334999844432,elbow,tiger,4322.840000037104,intrusion,v3.4,old,FALSE,3894.334999844432,3551.8749998882413,NA,TRUE,1,TRUE,elbow,elbow,TRUE,3551.8749998882413,0,1,-7.577494163792198,-0.802028462259812,-7.128100189293666,0.6970654786622158,-1.4990939409220276,-0.802028462259812,16,0.6780717438748803,late,first
wd0aa475,FALSE,right,ghost,goat,right,1337.5750000122935,1607.3350000660866,ghost,ghost,2035.5250001884997,correct,v3.4,old,TRUE,1607.3350000660866,1337.5750000122935,NA,TRUE,1,TRUE,ghost,ghost,TRUE,1337.5750000122935,0,1,-7.509605143771797,-0.575563435261435,-7.941540845643572,-2.016419855880836,1.4408564206194008,-0.575563435261435,17,-1.0484934527489713,late,first
wd0aa475,FALSE,right,electron,pitchfork,right,1283.060000045225,1832.219999982044,electron,electron,2668.0900000501424,correct,v3.4,old,TRUE,1832.219999982044,1283.060000045225,NA,TRUE,1,TRUE,electron,electron,TRUE,1283.060000045225,0,1,-7.338686953232835,-0.005412435537358455,-7.560084093203037,-0.7439517349063582,0.7385392993689998,-0.005412435537358455,18,-0.8787170582866707,late,first
wd0aa475,FALSE,right,suburb,barracuda,right,2929.069999838248,3287.849999964237,suburb,suburb,4623.219999950379,correct,v3.4,old,TRUE,3287.849999964237,2929.069999838248,NA,TRUE,1,TRUE,suburb,suburb,TRUE,2929.069999838248,0,1,-7.405755445000788,-0.22914033431105726,-7.492736611972432,-0.5192931796557686,0.2901528453447113,-0.22914033431105726,19,0.22020733934097,late,first
we300d99,FALSE,left,consumer,elephant,left,3452,4313.000000000116,consumer,consumer,5603,correct,v3.4,old,TRUE,4313.000000000116,1284.0000000001164,647.9999999998836,TRUE,3,TRUE,consumer,consumer,TRUE,2804.0000000001164,647.9999999998836,0.8122827346466154,-7.271590041171714,0.10954314749211791,-7.4470380404146255,-0.6881745554613639,0.7977177029534818,0.10954314749211791,1,-0.08946180044870485,early,first
we300d99,FALSE,left,fellow,neck,NA,NA,NA,NA,NA,NA,timeout,v3.4,old,FALSE,NA,1313,5848,NA,5,TRUE,fellow,NA,NA,8735.999999999884,6284.000000000116,0.5816245006657712,-7.208401172272897,0.3968469615436174,-7.011208949449001,1.2934301526324974,-0.89658319108888,NA,2,NA,early,first
we300d99,FALSE,left,shoelace,stable,left,2580,3063,shoelace,shoelace,4270,correct,v3.4,old,TRUE,3063,2580,NA,TRUE,1,TRUE,shoelace,shoelace,TRUE,2580,0,1,-7.208562489985378,0.3961134906827255,-7.613589973786338,-1.4454440956388737,1.8415575863215992,0.3961134906827255,3,-0.610443784426765,early,first
we300d99,FALSE,left,chimney,critic,right,4397,4787.000000000116,critic,critic,5990,correct,v3.4,old,TRUE,4787.000000000116,1257,3140,FALSE,2,FALSE,critic,critic,TRUE,1257,3140,0.2858767341369115,-7.205952853202131,0.4079788494742644,-7.474190300918764,-0.8116290204471244,1.2196078699213888,-0.8116290204471244,4,0.10809456787575716,early,second
we300d99,FALSE,left,major,gravel,right,11018.000000000116,11359,gravel,gravel,12374.000000000116,correct,v3.4,old,TRUE,11359,980.0000000001164,1740.9999999998836,FALSE,4,FALSE,gravel,gravel,TRUE,4584.000000000116,6434,0.4160464694136929,-7.811229879077319,-2.344062785740779,-7.093618768149059,0.9187335384909756,-3.262796324231755,0.9187335384909756,5,2.8472094468385025,early,second
we300d99,FALSE,left,eagle,crook,NA,NA,NA,NA,NA,NA,timeout,v3.4,old,FALSE,NA,1254.0000000001164,1822,NA,3,TRUE,eagle,NA,NA,13199,1822,0.8787031489248386,-7.565164796065351,-1.2252670534189938,-7.5333920075509635,-1.080804215543983,-0.1444628378750108,NA,6,NA,early,first
we300d99,FALSE,left,cookie,idol,right,3461,3908,idol,empire,4968.000000000116,intrusion,v3.4,old,FALSE,3908,838.0000000001164,2622.9999999998836,FALSE,2,FALSE,idol,idol,TRUE,838.0000000001164,2622.9999999998836,0.2421265530193922,-7.426622112661326,-0.5953484926888951,-7.197810623679091,0.4449995089293018,-1.040348001618197,0.4449995089293018,7,-0.2582599632576291,early,second
we300d99,FALSE,left,pizza,grizzly,left,2252,2540.0000000001164,pizza,pizza,4308,correct,v3.4,old,TRUE,2540.0000000001164,2252,NA,TRUE,1,TRUE,pizza,pizza,TRUE,2252,0,1,-7.1790551307695285,0.5302759941906807,-7.0139987645449775,1.2807455685983071,-0.7504695744076264,0.5302759941906807,8,-0.8284226465231165,early,first
we300d99,FALSE,left,tomato,community,left,3194,3555,tomato,tomato,4369.000000000116,correct,v3.4,old,TRUE,3555,3194,NA,TRUE,1,TRUE,tomato,tomato,TRUE,3194,0,1,-6.998224464995293,1.3524673212359768,-7.1102386990496855,0.8431669138585841,0.5093004073773927,1.3524673212359768,9,-0.4053852755330196,early,first
we300d99,FALSE,left,scenery,antelope,right,4282,5114,antelope,antelope,6391,correct,v3.4,old,TRUE,5114,1363,2919,FALSE,2,FALSE,antelope,antelope,TRUE,1363,2919,0.3183092013078001,-7.708517668593432,-1.8770563281804395,-7.515963056601585,-1.0015591812533517,-0.8754971469270878,-1.0015591812533517,10,0.24438345488435648,early,second
we300d99,FALSE,left,daisy,villain,left,5182,5545,daisy,daisy,6621,correct,v3.4,old,TRUE,5545,5182,NA,TRUE,1,TRUE,daisy,daisy,TRUE,5182,0,1,-6.914057409803592,1.7351536455121759,-7.350492669696407,-0.2492071594667282,1.984360804978904,1.7351536455121759,11,0.4240180429599749,late,first
we300d99,FALSE,left,goddess,penguin,left,2191,2654,goddess,goddess,4282.000000000116,correct,v3.4,old,TRUE,2654,2191,NA,TRUE,1,TRUE,goddess,goddess,TRUE,2191,0,1,-7.049444214556402,1.119584067268684,-7.272327061716361,0.10619210137906872,1.0133919658896153,1.119584067268684,12,-0.7809090895843703,late,first
we300d99,FALSE,left,department,flower,left,5019,5209,department,department,7567,correct,v3.4,old,TRUE,5209,5019,NA,TRUE,1,TRUE,department,department,TRUE,5019,0,1,-7.231469337958464,0.2919618433237,-7.351705892126545,-0.25472337517917726,0.5466852185028772,0.2919618433237,13,0.28397808566668536,late,first
we300d99,FALSE,left,apple,tart,right,7697,8075,tart,critic,9485,intrusion,v3.4,old,FALSE,8075,4385,3312,FALSE,2,FALSE,tart,tart,TRUE,4385,3312,0.5697024814862933,-7.1472571028279,0.6748535893613566,-7.21289334158935,0.3764222031886488,0.29843138617270787,0.3764222031886488,14,1.4784855785314703,late,second
we300d99,FALSE,left,patient,hamburger,left,2257,2689.0000000001164,patient,patient,3612.0000000001164,correct,v3.4,old,TRUE,2689.0000000001164,2257,NA,TRUE,1,TRUE,patient,patient,TRUE,2257,0,1,-7.089157401463713,0.9390182450685646,-7.682761664968941,-1.759950290281748,2.698968535350313,0.9390182450685646,15,-0.7663215940329375,late,first
we300d99,FALSE,left,lover,octopus,left,1474.0000000001164,1702,lover,lover,2347,correct,v3.4,old,TRUE,1702,1474.0000000001164,NA,TRUE,1,TRUE,lover,lover,TRUE,1474.0000000001164,0,1,-7.167364946176011,0.5834283085019505,-7.26033979347299,0.16069517994965835,0.42273312855229217,0.5834283085019505,16,-1.177688968582024,late,first
we300d99,FALSE,left,empire,seagull,left,1541,1843,empire,empire,2546,correct,v3.4,old,TRUE,1843,1541,NA,TRUE,1,TRUE,empire,empire,TRUE,1541,0,1,-7.127171812975347,0.7661763251775099,-7.343394762282363,-0.21693476865839628,0.9831110938359062,0.7661763251775099,17,-1.1189222007893043,late,first
we300d99,FALSE,left,tread,bed,right,5164,5604,bed,bed,5986,correct,v3.4,old,TRUE,5604,927,4237,FALSE,2,FALSE,bed,bed,TRUE,927,4237,0.1795120061967467,-7.727689836506165,-1.9642273293544616,-7.266846914955513,0.13110894343355442,-2.0953362727880163,0.13110894343355442,18,0.448608392603737,late,second
we300d99,FALSE,left,horse,captive,right,4668,5010,captive,captive,5810,correct,v3.4,old,TRUE,5010,2003.0000000001164,2664.9999999998836,FALSE,2,FALSE,captive,captive,TRUE,2003.0000000001164,2664.9999999998836,0.42909168808914233,-7.351489956088535,-0.2537415685984854,-7.297856703205936,-0.009884725111800533,-0.24385684348668488,-0.009884725111800533,19,0.20103775381738592,late,second
w92e42ac,FALSE,left,pizza,volunteer,left,3543.634999950882,4511.46999996854,pizza,pizza,5511.629999964498,correct,v3.4,old,TRUE,4511.46999996854,3543.634999950882,NA,TRUE,1,TRUE,pizza,pizza,TRUE,3543.634999950882,0,1,-6.88244060738121,-0.6636835333166705,-6.873011309538706,-0.6193878261619041,-0.044295707154766384,-0.6636835333166705,1,1.632175666448608,early,first
w92e42ac,FALSE,left,baby,ozone,left,2095.600000000559,2951.6900000162423,baby,baby,4032.034999981988,correct,v3.4,old,TRUE,2951.6900000162423,2095.600000000559,NA,TRUE,1,TRUE,baby,baby,TRUE,2095.600000000559,0,1,-6.6324312200055555,0.5107774704724819,-6.683379870929429,0.2714376427409457,0.23933982773153623,0.5107774704724819,2,0.1442669234677651,early,first
w92e42ac,FALSE,left,stable,strawberry,left,2087.1899999910966,2783.3250000257976,stable,stable,3855.4500000318512,correct,v3.4,old,TRUE,2783.3250000257976,2087.1899999910966,NA,TRUE,1,TRUE,stable,stable,TRUE,2087.1899999910966,0,1,-6.879328902371205,-0.6490657774479495,-6.7596992120987665,-0.08708525505563021,-0.5619805223923192,-0.6490657774479495,3,-0.016340184909963466,early,first
w92e42ac,FALSE,left,refrigerator,enemy,left,1887.5650000409223,2511.4600000088103,refrigerator,refrigerator,4295.780000044033,correct,v3.4,old,TRUE,2511.4600000088103,1887.5650000409223,NA,TRUE,1,TRUE,refrigerator,refrigerator,TRUE,1887.5650000409223,0,1,-6.9293493886201505,-0.8840453960399759,-6.6203544034449955,0.5675103405825983,-1.4515557366225742,-0.8840453960399759,4,-0.27567823928181945,early,first
w92e42ac,FALSE,left,goat,personnel,left,2471.735000028275,2983.7100000004284,goat,goat,3544.110000017099,correct,v3.4,old,TRUE,2983.7100000004284,2471.735000028275,NA,TRUE,1,TRUE,goat,goat,TRUE,2471.735000028275,0,1,-6.8114495233186165,-0.33019101640187265,-6.753538392876703,-0.05814377408301522,-0.2720472423188574,-0.33019101640187265,5,0.17481151176109752,early,first
w92e42ac,FALSE,left,stranger,tractor,left,1799.7949999989942,2367.9249999695458,stranger,stranger,3839.9199999985285,correct,v3.4,old,TRUE,2367.9249999695458,1799.7949999989942,NA,TRUE,1,TRUE,stranger,stranger,TRUE,1799.7949999989942,0,1,-6.8733616391917485,-0.6210335584293547,-6.800007988988269,-0.27644249105423374,-0.34459106737512096,-0.6210335584293547,6,-0.4125994598954373,early,first
w92e42ac,FALSE,left,pillow,virus,left,1207.4249999714084,1911.519999965094,pillow,pillow,2943.81499994779,correct,v3.4,old,TRUE,1911.519999965094,1207.4249999714084,NA,TRUE,1,TRUE,pillow,pillow,TRUE,1207.4249999714084,0,1,-6.4107986306763545,1.55193370891743,-6.5527074554460985,0.8852932177938472,0.6666404911235829,1.55193370891743,7,-0.8479743139566278,early,first
w92e42ac,FALSE,left,territory,cookie,left,1960.0150000187568,2519.640000013169,territory,territory,3743.7900000368245,correct,v3.4,old,TRUE,2519.640000013169,1960.0150000187568,NA,TRUE,1,TRUE,territory,territory,TRUE,1960.0150000187568,0,1,-6.7159604608344265,0.1183848605013305,-6.561695885943593,0.8430685588904793,-0.7246836983891488,0.1183848605013305,8,-0.2678751558184844,early,first
w92e42ac,FALSE,left,elbow,tart,left,1263.6399999610148,1831.5650000004098,elbow,elbow,2559.8299999837764,correct,v3.4,old,TRUE,1831.5650000004098,1263.6399999610148,NA,TRUE,1,TRUE,elbow,elbow,TRUE,1263.6399999610148,0,1,-6.784775247541958,-0.2048841347969406,-6.519807444294483,1.0398465348808643,-1.2447306696778049,-0.2048841347969406,9,-0.9242451620865725,early,first
w92e42ac,FALSE,left,pitchfork,hero,left,2015.7800000160933,2463.59499997925,pitchfork,pitchfork,3871.7649999889545,correct,v3.4,old,TRUE,2463.59499997925,2015.7800000160933,NA,TRUE,1,TRUE,pitchfork,pitchfork,TRUE,2015.7800000160933,0,1,-6.683399191640824,0.27134688046063177,-6.853990798743474,-0.5300357884818739,0.8013826689425056,0.27134688046063177,10,-0.32133772461240384,early,first
w92e42ac,FALSE,left,gravel,fellow,left,1415.659999998752,1887.5300000072457,gravel,gravel,2815.650000004098,correct,v3.4,old,TRUE,1887.5300000072457,1415.659999998752,NA,TRUE,1,TRUE,gravel,gravel,TRUE,1415.659999998752,0,1,-6.56051212138154,0.8486294913434307,-6.532188378827563,0.98168501961856,-0.13305552827512934,0.8486294913434307,11,-0.8708589070931498,late,first
w92e42ac,FALSE,left,community,saxophone,left,2384.085000026971,2839.670000015758,community,community,4719.900000025518,correct,v3.4,old,TRUE,2839.670000015758,2384.085000026971,NA,TRUE,1,TRUE,community,community,TRUE,2384.085000026971,0,1,-6.5744963809541686,0.7829360879583817,-6.522246097603951,1.0283905521923922,-0.24545446423401052,0.7829360879583817,12,0.03740856049700511,late,first
w92e42ac,FALSE,left,idol,antelope,left,3495.809999993071,3943.680000025779,idol,idol,6935.845000029076,correct,v3.4,old,TRUE,3943.680000025779,3495.809999993071,NA,TRUE,1,TRUE,idol,idol,TRUE,3495.809999993071,0,1,-6.932210184127284,-0.8974844624614885,-6.8063652171872695,-0.30630663611809994,-0.5911778263433886,-0.8974844624614885,13,1.0905481900623464,late,first
w92e42ac,FALSE,left,keeper,neck,left,2207.7850000350736,2719.6400000248104,keeper,keeper,4263.840000028722,correct,v3.4,old,TRUE,2719.6400000248104,2207.7850000350736,NA,TRUE,1,TRUE,keeper,keeper,TRUE,2207.7850000350736,0,1,-6.678431532686509,0.29468329107788727,-7.508298879069187,-3.6037576709807624,3.8984409620586495,0.29468329107788727,14,-0.07709071915267833,late,first
w92e42ac,FALSE,left,goddess,tomato,left,1567.9649999947287,1983.7500000139698,goddess,goddess,3143.96499999566,correct,v3.4,old,TRUE,1983.7500000139698,1567.9649999947287,NA,TRUE,1,TRUE,goddess,goddess,TRUE,1567.9649999947287,0,1,-6.811373645027068,-0.329834565408598,-6.479840484673821,1.2275980269636526,-1.5574325923722507,-0.329834565408598,15,-0.7790725146121589,late,first
w92e42ac,FALSE,left,roost,frog,right,5287.590000021737,5935.714999970514,frog,frog,7576.014999998733,correct,v3.4,old,TRUE,5935.714999970514,3791.734999977052,1495.8550000446849,FALSE,2,FALSE,frog,frog,TRUE,3791.734999977052,1495.8550000446849,0.7171007963857758,-6.726490213623375,0.06891958177730304,-6.645872442687584,0.44763507390491164,-0.3787154921276086,0.44763507390491164,16,2.9907945663668642,late,second
w92e42ac,FALSE,left,electron,quill,left,1623.7100000143982,1951.6099999891594,electron,electron,3383.819999988191,correct,v3.4,old,TRUE,1951.6099999891594,1623.7100000143982,NA,TRUE,1,TRUE,electron,electron,TRUE,1623.7100000143982,0,1,-6.857361196542456,-0.5458687970889228,-6.602535102151214,0.6512194952827376,-1.1970882923716604,-0.5458687970889228,17,-0.8097315736062365,late,first
w92e42ac,FALSE,left,cauliflower,agent,left,2207.6400000369176,3303.539999993518,cauliflower,cauliflower,5208.0600000335835,correct,v3.4,old,TRUE,3303.539999993518,2207.6400000369176,NA,TRUE,1,TRUE,cauliflower,cauliflower,TRUE,2207.6400000369176,0,1,-7.353422699983033,-2.876200859366955,-6.667287219103789,0.34703557214338016,-3.223236431510335,-2.876200859366955,18,0.4799044436308706,late,first
w92e42ac,FALSE,left,donor,stairs,left,1423.5699999844655,1807.6000000000931,donor,donor,2479.7600000165403,correct,v3.4,old,TRUE,1807.6000000000931,1423.5699999844655,NA,TRUE,1,TRUE,donor,donor,TRUE,1423.5699999844655,0,1,-6.819600076200509,-0.3684796047608414,-6.625390022712443,0.5438546750028896,-0.912334279763731,-0.3684796047608414,19,-0.947105907209024,late,first
w5733596,FALSE,left,octopus,electron,left,5482.269999571145,5962.594999931753,octopus,octopus,7501.535000279546,correct,v3.4,old,TRUE,5962.594999931753,1758.4600001573563,1531.5450001507998,TRUE,3,TRUE,octopus,octopus,TRUE,3950.724999420345,1531.5450001507998,0.7206367070081178,-6.824092675773275,0.3409514045797157,-6.752106117376748,0.9354427910803036,-0.5944913865005879,0.3409514045797157,1,2.4682380690512984,early,first
w5733596,FALSE,left,dandelion,roost,right,3664.04000017792,4062.4550003558397,roost,roost,4680.620000697672,correct,v3.4,old,TRUE,4062.4550003558397,1593.5500003397465,2070.4899998381734,FALSE,2,FALSE,roost,roost,TRUE,1593.5500003397465,2070.4899998381734,0.4349161036075933,-6.889587817891184,-0.1999314868102846,-6.899403659667704,-0.2809943062779172,0.08106281946763261,-0.2809943062779172,2,0.16954508764764678,early,second
w5733596,FALSE,left,cookie,vagrant,left,2821.24499976635,5295.5549992620945,cookie,cookie,6194.634999148548,correct,v3.4,old,TRUE,5295.5549992620945,1272.1949992701411,1549.0500004962087,TRUE,2,FALSE,vagrant,cookie,FALSE,1272.1949992701411,1549.0500004962087,0.4509338959840432,-6.871451567691757,-0.05015568467249446,-6.9107104407138396,-0.374369848750024,0.3242141640775295,-0.05015568467249446,3,1.661286913769557,early,second
w5733596,FALSE,left,fellow,cactus,left,3433.0350002273917,4164.599999785423,fellow,fellow,4831.090000458062,correct,v3.4,old,TRUE,4164.599999785423,1268.575000576675,2164.459999650717,TRUE,2,FALSE,cactus,fellow,FALSE,1268.575000576675,2164.459999650717,0.3695199729955125,-6.857209194499271,0.067463053809499,-6.765876739993981,0.8217199417727811,-0.754256887963282,0.067463053809499,4,0.29311492635777764,early,second
w5733596,FALSE,left,cauliflower,patient,right,3668.695000000298,4066.279999911785,patient,patient,4782.890000380576,correct,v3.4,old,TRUE,4066.279999911785,1789.5200001075864,1879.1749998927116,FALSE,2,FALSE,patient,patient,TRUE,1789.5200001075864,1879.1749998927116,0.48778107749688676,-6.9543434649901075,-0.7347073572655546,-6.917082623185118,-0.42699366737347455,-0.30771368989208003,-0.42699366737347455,5,0.1741723780762921,early,second
w5733596,FALSE,left,barracuda,stranger,right,3070.4300003126264,3411.4950001239777,stranger,stranger,4419.695000164211,correct,v3.4,old,TRUE,3411.4950001239777,1630.1650004461408,1440.2649998664856,FALSE,2,FALSE,stranger,stranger,TRUE,1630.1650004461408,1440.2649998664856,0.5309240074778321,-6.749507724063155,0.9569012755262882,-6.864335946665867,0.008607722048421612,0.9482935534778666,0.008607722048421612,6,-0.617953298808861,early,second
w5733596,FALSE,left,villain,gravel,left,3254.510000348091,3619.189999997616,villain,villain,4515.004999935627,correct,v3.4,old,TRUE,3619.189999997616,1610.3849997743964,1644.1250005736947,TRUE,2,FALSE,gravel,villain,FALSE,1610.3849997743964,1644.1250005736947,0.49481642385555896,-6.726079503763919,1.1503801065632475,-6.868211141557272,-0.02339505784920088,1.1737751644124483,1.1503801065632475,7,-0.36669442388979184,early,second
w5733596,FALSE,left,elbow,atom,right,2669.8800008744,2909.540000371635,atom,atom,3401.1200005188584,correct,v3.4,old,TRUE,2909.540000371635,1266.3050005212426,1403.5750003531575,FALSE,2,FALSE,atom,atom,TRUE,1266.3050005212426,1403.5750003531575,0.47429285215310085,-7.111838606620076,-2.035359967978824,-7.032877416632359,-1.3832695171899072,-0.6520904507889167,-1.3832695171899072,8,-1.2251929943937674,early,second
w5733596,FALSE,left,baby,permit,left,3040.594999678433,3409.384999424219,baby,baby,4092.1049993485212,correct,v3.4,old,TRUE,3409.384999424219,1289.0399992465973,1751.5550004318357,TRUE,2,FALSE,permit,baby,FALSE,1289.0399992465973,1751.5550004318357,0.42394333983411914,-6.755101071644164,0.910709360914984,-6.889098054452497,-0.19588684080681557,1.1065962017217996,0.910709360914984,9,-0.6205058706195561,early,second
w5733596,FALSE,left,hamburger,enemy,right,3830.710000358522,4190.340000204742,enemy,enemy,5088.1750006228685,correct,v3.4,old,TRUE,4190.340000204742,1544.7200005874038,2285.989999771118,FALSE,2,FALSE,enemy,enemy,TRUE,1544.7200005874038,2285.989999771118,0.40324639569239934,-6.748463413099737,0.9655255782629232,-6.974149809071849,-0.8982754068700821,1.8638009851330053,-0.8982754068700821,10,0.3242538731292895,early,second
w5733596,FALSE,left,traitor,elephant,right,2887.884999625385,3226.469999179244,elephant,elephant,4874.1549998521805,correct,v3.4,old,TRUE,3226.469999179244,1476.8849993124604,1411.0000003129244,FALSE,2,FALSE,elephant,elephant,TRUE,1476.8849993124604,1411.0000003129244,0.5114071368853127,-6.862810068915042,0.02120897983770999,-6.808144417317155,0.47265796887500383,-0.45144898903729386,0.47265796887500383,11,-0.8417871590248388,late,second
w5733596,FALSE,left,banana,personnel,left,3862.6300003379583,4324.850000441074,banana,banana,5634.960000403225,correct,v3.4,old,TRUE,4324.850000441074,1620.0200002640486,2242.6100000739098,TRUE,2,FALSE,personnel,banana,FALSE,1620.0200002640486,2242.6100000739098,0.4194085377378382,-6.877186706252776,-0.09751856117136243,-6.8781086261764965,-0.1051321138387367,0.0076135526673742765,-0.09751856117136243,12,0.4869772480073878,late,second
w5733596,FALSE,left,winner,penguin,right,2599.024999886751,2963.024999946356,penguin,penguin,4004.604999907315,correct,v3.4,old,TRUE,2963.024999946356,1152.874999679625,1446.1500002071261,FALSE,2,FALSE,penguin,penguin,TRUE,1152.874999679625,1446.1500002071261,0.44357980386100937,-6.796528733262351,0.5685845456236188,-6.789897958401207,0.6233439149917296,-0.054759369368110766,0.6233439149917296,13,-1.1604895550891752,late,second
w5733596,FALSE,left,ghost,apple,left,3661.864999681711,4047.1349991858006,ghost,ghost,4687.30999995023,correct,v3.4,old,TRUE,4047.1349991858006,1251.0599996894598,2410.8049999922514,TRUE,2,FALSE,apple,ghost,FALSE,1251.0599996894598,2410.8049999922514,0.34164558218235835,-6.664734866072931,1.6569866109943736,-7.151978007368703,-2.3668458527868035,4.0238324637811775,1.6569866109943736,14,0.15101172738339017,late,second
w5733596,FALSE,left,department,ear,right,2718.0099999532104,2979.9449993297458,ear,ear,3372.6399997249246,correct,v3.4,old,TRUE,2979.9449993297458,1438.4749997407198,1279.5350002124906,FALSE,2,FALSE,ear,ear,TRUE,1438.4749997407198,1279.5350002124906,0.5292383029368849,-7.0516547386915605,-1.5383395257358548,-6.680354131545724,1.5279969913504718,-3.0663365170863264,1.5279969913504718,15,-1.1400205981509322,late,second
w5733596,FALSE,left,magazine,empire,right,3465.1899999007583,3798.410000279546,empire,empire,4743.520000018179,correct,v3.4,old,TRUE,3798.410000279546,1594.4950003176928,1870.6949995830655,FALSE,2,FALSE,empire,empire,TRUE,1594.4950003176928,1870.6949995830655,0.4601464855789606,-7.011842587324285,-1.2095561862750153,-7.009644178376843,-1.1914009193422488,-0.01815526693276648,-1.1914009193422488,16,-0.14988315900026805,late,second
w5733596,FALSE,left,follower,pizza,right,4051.465000025928,5161.170000210404,pizza,pizza,6287.120000459254,correct,v3.4,old,TRUE,5161.170000210404,2508.1000002101064,1543.3649998158216,FALSE,2,FALSE,pizza,pizza,TRUE,2508.1000002101064,1543.3649998158216,0.6190600190780509,-7.019577005551996,-1.273429847113749,-6.97404453239603,-0.8974059934911368,-0.37602385362261226,-0.8974059934911368,17,1.4987147589835932,late,second
w5733596,FALSE,left,rebel,refrigerator,left,3059.235000051558,3443.029999732971,rebel,rebel,4238.020000047982,correct,v3.4,old,TRUE,3443.029999732971,1454.1499996557832,1605.0850003957748,TRUE,2,FALSE,refrigerator,rebel,FALSE,1454.1499996557832,1605.0850003957748,0.4753312509929038,-6.669736885169982,1.6156781037598915,-6.763063003190668,0.8449568116927924,0.7707212920670992,1.6156781037598915,18,-0.5798038559857326,late,second
w5733596,FALSE,left,quill,goddess,right,3172.484999522567,3488.344999961555,goddess,goddess,4695.7499999552965,correct,v3.4,old,TRUE,3488.344999961555,1666.6599996387959,1505.824999883771,FALSE,2,FALSE,goddess,goddess,TRUE,1666.6599996387959,1505.824999883771,0.5253484255684785,-6.673503172040389,1.5845747262207965,-6.80849265347871,0.469782107004068,1.1147926192167286,0.469782107004068,19,-0.52498406744331,late,second
w720959a,FALSE,right,scenery,cactus,left,8043.535000000731,9190.819999999832,cactus,cactus,10829.539999998873,correct,v3.4,old,TRUE,9190.819999999832,1813.97999999905,6229.555000001681,FALSE,2,FALSE,cactus,cactus,TRUE,1813.97999999905,6229.555000001681,0.22552024700568657,-7.295722213478835,-0.43855606938421954,-7.195931988420364,-0.07665701242860706,-0.3618990569556125,-0.07665701242860706,1,2.65295289429789,early,second
w720959a,FALSE,right,stairs,fellow,right,2986.9749999998603,4049.319999998319,stairs,stairs,6123.185000000405,correct,v3.4,old,TRUE,4049.319999998319,620.7450000002282,872.1699999986449,TRUE,3,TRUE,stairs,stairs,TRUE,2114.8050000012154,872.1699999986449,0.7080089388097706,-7.292237037414409,-0.42591673591943496,-7.297477349712197,-0.4449212434011138,0.019004507481678812,-0.42591673591943496,2,-0.2898600817347949,early,first
w720959a,FALSE,right,flower,vagrant,right,2414.7050000028685,3731.7400000027847,flower,flower,5338.204999999958,correct,v3.4,old,TRUE,3731.7400000027847,468.28500000259373,465.17499999760184,TRUE,3,TRUE,flower,flower,TRUE,1949.5300000052666,465.17499999760184,0.8073574204728738,-6.78706998820053,1.4061212077612342,-7.236484237411524,-0.223723728218965,1.6298449359801992,1.4061212077612342,3,-0.4716316551890482,early,first
w720959a,FALSE,right,cue,seagull,right,2081.334999998915,3139.8449999978766,cue,cue,4921.17999999749,correct,v3.4,old,TRUE,3139.8449999978766,392.76500000047963,457.924999998766,TRUE,3,TRUE,cue,cue,TRUE,1623.410000000149,457.924999998766,0.779984961575621,-6.9601306030185786,0.7784998825050522,-7.111060352021737,0.2311383167927228,0.5473615657123294,0.7784998825050522,4,-0.8104114444456458,early,first
w720959a,FALSE,right,penguin,keeper,left,2485.5199999982724,3434.424999999348,keeper,keeper,5567.790000000969,correct,v3.4,old,TRUE,3434.424999999348,500.63500000024214,1984.8849999980303,FALSE,2,FALSE,keeper,keeper,TRUE,500.63500000024214,1984.8849999980303,0.20142062827922935,-7.484405981784725,-1.122836295956736,-6.82806304650937,1.2574558536646485,-2.3802921496213845,1.2574558536646485,5,-0.641804258510844,early,second
w720959a,FALSE,right,grizzly,elephant,right,2377.0599999988917,3591.6500000021188,grizzly,grizzly,7359.029999999562,correct,v3.4,old,TRUE,3591.6500000021188,637.8850000000093,314.829999999376,TRUE,3,TRUE,grizzly,grizzly,TRUE,2062.2299999995157,314.829999999376,0.8675548787159252,-6.7993790777830885,1.361481084850399,-7.235475650767542,-0.22006598964686314,1.5815470744972622,1.361481084850399,6,-0.5518142224970822,early,first
w720959a,FALSE,right,department,bed,right,3523.9999999976717,4389.32500000007,department,department,6752.169999999693,correct,v3.4,old,TRUE,4389.32500000007,544.0249999992084,448.26499999908265,TRUE,3,TRUE,department,department,TRUE,3075.734999998589,448.26499999908265,0.8727965380251479,-7.233023023133513,-0.21117129452719263,-6.938890601629856,0.8555288346675577,-1.0667001291947504,-0.21117129452719263,7,-0.09525323044220496,early,first
w720959a,FALSE,right,tomato,ozone,right,5098.920000000391,5962.504999999423,tomato,tomato,7594.81500000041,correct,v3.4,old,TRUE,5962.504999999423,728.6700000003912,753.8949999980396,TRUE,7,TRUE,tomato,tomato,TRUE,3225.215000002063,1873.7049999983283,0.6325290453668259,-6.847888017006765,1.1855586500760582,-7.0652523791651545,0.3972654316291908,0.7882932184468674,1.1855586500760582,8,0.8051794288268472,early,first
w720959a,FALSE,right,winner,frog,right,2199.369999998482,3185.7549999986077,winner,winner,5047.839999999269,correct,v3.4,old,TRUE,3185.7549999986077,599.9899999988265,448.449999999837,TRUE,3,TRUE,winner,winner,TRUE,1750.919999998645,448.449999999837,0.7961007015644723,-6.694708582897046,1.741078919890261,-6.966872039690673,0.7540513999735461,0.9870275199167149,1.741078919890261,9,-0.7841341822202695,early,first
w720959a,FALSE,right,tart,carrot,right,2738.005000002915,3542.7750000017695,tart,tart,6329.010000001406,correct,v3.4,old,TRUE,3542.7750000017695,662.4850000008009,541.0750000010012,TRUE,3,TRUE,tart,tart,TRUE,2196.930000001914,541.0750000010012,0.8023834872469462,-6.979711707609406,0.7074870825898564,-7.270799018211682,-0.34816965269643035,1.0556567352862867,0.7074870825898564,10,-0.5797885459833378,early,first
w720959a,FALSE,right,cookie,ghost,left,2237.1700000002747,3287.109999997425,ghost,ghost,14208.024999999907,correct,v3.4,old,TRUE,3287.109999997425,626.7699999988545,1610.4000000014203,FALSE,2,FALSE,ghost,ghost,TRUE,626.7699999988545,1610.4000000014203,0.28016199037121786,-7.234605513930733,-0.21691035290509675,-7.349948469070832,-0.6352129137743298,0.418302560869233,-0.6352129137743298,11,-0.7261221605957973,late,second
w720959a,FALSE,right,electron,walrus,right,2025.4050000002608,3131.9750000002095,electron,electron,5758.8249999971595,correct,v3.4,old,TRUE,3131.9750000002095,677.2399999971967,326.29000000085216,TRUE,3,TRUE,electron,electron,TRUE,1699.1149999994086,326.29000000085216,0.8389013555309629,-6.678181237124469,1.8010169633766868,-7.547476777879379,-1.3515687355791615,3.152585698955848,1.8010169633766868,12,-0.8149159544358248,late,first
w720959a,FALSE,right,magazine,idol,right,4351.7699999974575,5129.719999997178,magazine,magazine,7488.474999998347,correct,v3.4,old,TRUE,5129.719999997178,605.3350000001956,888.6099999982398,TRUE,3,TRUE,magazine,magazine,TRUE,3463.1599999992177,888.6099999982398,0.7958049253524981,-7.493908979354746,-1.1572998504464351,-7.332117114873058,-0.5705457555969141,-0.586754094849521,-1.1572998504464351,13,0.328522713033545,late,first
w720959a,FALSE,right,donor,bug,right,3174.51499999885,4063.239999999525,donor,bug,5143.285000001895,intrusion,v3.4,old,FALSE,4063.239999999525,512.2750000009546,986.1649999984074,TRUE,3,TRUE,donor,donor,TRUE,2188.3500000004424,986.1649999984074,0.6893493966798819,-6.962220897235,0.7709192251286451,-7.810923953940917,-2.306985806924833,3.077905032053478,0.7709192251286451,14,-0.28189276545940595,late,first
w720959a,FALSE,right,apple,mister,left,3464.7949999999255,4196.550000000629,mister,mister,5740.970000002533,correct,v3.4,old,TRUE,4196.550000000629,573.2900000002701,2891.5049999996554,FALSE,2,FALSE,mister,mister,TRUE,573.2900000002701,2891.5049999996554,0.16546144865721707,-7.338095757056026,-0.5922278889584068,-7.269172440368542,-0.3422707083143281,-0.24995718064407874,-0.3422707083143281,15,-0.2055908306469875,late,second
w720959a,FALSE,right,parrot,scapegoat,right,7349.545000000973,8102.17499999993,parrot,parrot,9566.299999998533,correct,v3.4,old,TRUE,8102.17499999993,549.7350000004517,1178.0350000008475,TRUE,3,TRUE,parrot,parrot,TRUE,6171.510000000126,1178.0350000008475,0.839713206735833,-7.399383635751342,-0.8144944034356373,-7.181636760368537,-0.024813963193170762,-0.7896804402424665,-0.8144944034356373,16,2.029850952784349,late,first
w720959a,FALSE,right,stable,shoelace,right,5042.554999999935,6855.629999998142,stable,cart,7821.214999999967,other,v3.4,old,FALSE,6855.629999998142,560.0850000010105,1106.414999998291,TRUE,3,TRUE,stable,stable,TRUE,3936.140000001644,1106.414999998291,0.7805844457822859,-7.293821449362922,-0.4316627615412836,-7.881851922306889,-2.5642130538659265,2.132550292324643,-0.4316627615412836,17,1.3163726291019906,late,first
w720959a,FALSE,right,eagle,critic,left,3024.204999997979,3926.8950000006007,critic,critic,5735.130000001052,correct,v3.4,old,TRUE,3926.8950000006007,505.509999999078,2518.694999998901,FALSE,2,FALSE,critic,critic,TRUE,505.509999999078,2518.694999998901,0.16715467370744239,-7.312780203242132,-0.5004185454461619,-6.982979422649073,0.6956363928999347,-1.1960549383460966,0.6956363928999347,18,-0.35993182705891835,late,second
w720959a,FALSE,right,editorial,pig,left,2717.6650000001537,3647.709999997518,pig,bug,4377.214999996824,intrusion,v3.4,old,FALSE,3647.709999997518,592.9249999972526,2124.740000002901,FALSE,2,FALSE,pig,pig,TRUE,592.9249999972526,2124.740000002901,0.2181744254708432,-7.409707816954033,-0.8519360610619604,-7.057186757551019,0.4265162009726422,-1.2784522620346026,0.4265162009726422,19,-0.5197274588244566,late,second
w552e172,FALSE,left,dandelion,ozone,left,1759.665000019595,4848.955000052229,dandelion,dandelion,8383.9750001207,correct,v3.4,old,TRUE,4848.955000052229,1759.665000019595,NA,TRUE,1,TRUE,dandelion,dandelion,TRUE,1759.665000019595,0,1,-7.165358707764686,0.10377475882226524,-7.8913474339550485,-2.9901564293619947,3.0939311881842597,0.10377475882226524,1,1.2263931661010066,early,first
w552e172,FALSE,left,transplant,cauliflower,left,4339.3850000575185,5046.460000099614,transplant,transplant,7809.184999903664,correct,v3.4,old,TRUE,5046.460000099614,4339.3850000575185,NA,TRUE,1,TRUE,transplant,transplant,TRUE,4339.3850000575185,0,1,-7.588803493465755,-1.700811155106943,-6.969565049333008,0.938184556684092,-2.638995711791035,-1.700811155106943,2,1.419086391902308,early,first
w552e172,FALSE,left,tiger,community,left,3045.810000039637,3662.0200001634657,tiger,tiger,4358.290000120178,correct,v3.4,old,TRUE,3662.0200001634657,625.145000172779,1108.7349997833371,TRUE,3,TRUE,tiger,tiger,TRUE,1937.0750002563,1108.7349997833371,0.6359802483513718,-7.153365535093459,0.15488581555657985,-6.938339338187097,1.071258526158151,-0.9163727106015712,0.15488581555657985,3,0.06837522280762272,early,first
w552e172,FALSE,left,parrot,winner,left,1449.6200000867248,2178.4699999261647,parrot,parrot,4305.434999987483,correct,v3.4,old,TRUE,2178.4699999261647,1449.6200000867248,NA,TRUE,1,TRUE,parrot,parrot,TRUE,1449.6200000867248,0,1,-6.819094158480166,1.579443250281777,-7.243303372387195,-0.22840041157412475,1.8078436618559017,1.579443250281777,4,-1.3790313497584434,early,first
w552e172,FALSE,left,chimney,suburb,left,3114.9200000800192,4068.3899999130517,chimney,chimney,6757.489999989048,correct,v3.4,old,TRUE,4068.3899999130517,640.5799998901784,652.5350001174957,TRUE,3,TRUE,chimney,chimney,TRUE,2462.3849999625236,652.5350001174957,0.7905130789552436,-7.3001140532795334,-0.47050931918366445,-7.143871860237475,0.1953448139786972,-0.6658541331623616,-0.47050931918366445,5,0.4648449126981817,early,first
w552e172,FALSE,left,strawberry,stranger,left,1973.6399999819696,2370.4049999359995,strawberry,strawberry,5038.685000035912,correct,v3.4,old,TRUE,2370.4049999359995,688.300000037998,618.2949999347329,TRUE,3,TRUE,strawberry,strawberry,TRUE,1355.3450000472367,618.2949999347329,0.6867235159702978,-7.332124192349754,-0.6069262689718116,-7.10148621260288,0.3759788547250497,-0.9829051236968613,-0.6069262689718116,6,-1.1917724232138267,early,first
w552e172,FALSE,left,virus,eagle,left,1792.0299998950213,2389.07999987714,virus,virus,3175.9549998678267,correct,v3.4,old,TRUE,2389.07999987714,1792.0299998950213,NA,TRUE,1,TRUE,virus,virus,TRUE,1792.0299998950213,0,1,-6.870701386420485,1.3595097908489342,-7.3838767953562865,-0.8274792703274328,2.186989061176367,1.3595097908489342,7,-1.173552398507444,early,first
w552e172,FALSE,left,tart,goat,right,3349.835000000894,3958.409999962896,goat,goat,4837.330000009388,correct,v3.4,old,TRUE,3958.409999962896,1349.754999857396,2000.0800001434982,FALSE,2,FALSE,goat,goat,TRUE,1349.754999857396,2000.0800001434982,0.4029317861497762,-7.3540060844322674,-0.7001798773657496,-7.030527730744538,0.6783811540551974,-1.378561031420947,0.6783811540551974,8,0.3575443331739268,early,second
w552e172,FALSE,left,finger,villain,left,1909.155000001192,2299.495000159368,finger,finger,2955.155000090599,correct,v3.4,old,TRUE,2299.495000159368,1909.155000001192,NA,TRUE,1,TRUE,finger,finger,TRUE,1909.155000001192,0,1,-7.368240175073217,-0.7608410080152207,-6.983139360001657,0.8803351967412437,-1.6411762047564644,-0.7608410080152207,9,-1.2609548570522129,early,first
w552e172,FALSE,left,shoelace,enemy,right,4481.720000039786,5003.444999922067,enemy,ennemy,7458.6050000507385,other,v3.4,old,FALSE,5003.444999922067,624.8349999077618,3856.8850001320243,FALSE,2,FALSE,enemy,enemy,TRUE,624.8349999077618,3856.8850001320243,0.13941857141950298,-6.892228310771655,1.2677689411180215,-6.955443041293947,0.9983680272196719,0.26940091389834964,0.9983680272196719,10,1.3771193574471474,early,second
w552e172,FALSE,left,electron,seagull,left,3103.029999881983,3634.9100000225008,electron,electron,4706.119999988005,correct,v3.4,old,TRUE,3634.9100000225008,1167.9049998056144,836.1950002145022,TRUE,3,TRUE,electron,electron,TRUE,2266.8349996674806,836.1950002145022,0.7305230693076428,-6.991032284505335,0.846698083096162,-7.118320156351077,0.3042379836842652,0.5424600994118969,0.846698083096162,11,0.041925698099980105,late,first
w552e172,FALSE,left,sand,keeper,left,3698.1399999931455,4055.0200000870973,sand,sand,4846.0500000510365,correct,v3.4,old,TRUE,4055.0200000870973,1829.9549999646842,1031.1000000219792,TRUE,3,TRUE,sand,sand,TRUE,2667.0399999711663,1031.1000000219792,0.7211841628429723,-7.149659209291384,0.17068098782156352,-7.388487562715802,-0.8471288825327439,1.0178098703543075,0.17068098782156352,12,0.4518006434654641,late,first
w552e172,FALSE,left,personnel,quill,right,3025.1799998804927,3986.06999986805,quill,quill,5762.984999921173,correct,v3.4,old,TRUE,3986.06999986805,1017.4899999983609,2007.6899998821318,FALSE,2,FALSE,quill,quill,TRUE,1017.4899999983609,2007.6899998821318,0.3363403169525635,-7.282254329013658,-0.3943969004571042,-7.1129221931197835,0.3272423723083262,-0.7216392727654304,0.3272423723083262,13,0.3845304581130883,late,second
w552e172,FALSE,left,antelope,society,right,4946.0149998776615,5440.349999815226,society,society,6478.5899999551475,correct,v3.4,old,TRUE,5440.349999815226,1271.1049998179078,1033.15500007011,FALSE,4,FALSE,society,society,TRUE,2296.394999837503,2649.6200000401586,0.46429196027393843,-7.381043300567726,-0.8154038239993788,-7.391085406962063,-0.858200061802602,0.04279623780322317,-0.858200061802602,14,1.8033801294677616,late,second
w552e172,FALSE,left,vagrant,elbow,right,2479.2300001718104,2995.695000048727,elbow,elbow,4204.499999992549,correct,v3.4,old,TRUE,2995.695000048727,727.4700000416487,1751.7600001301616,FALSE,2,FALSE,elbow,elbow,TRUE,727.4700000416487,1751.7600001301616,0.2934257813882678,-7.397287573426879,-0.8846317067683583,-6.9754287062013915,0.9131955310870948,-1.7978272378554532,0.9131955310870948,15,-0.5817162365142003,late,second
w552e172,FALSE,left,bed,empire,left,2590.695000020787,3021.68000000529,bed,bed,3397.984999930486,correct,v3.4,old,TRUE,3021.68000000529,873.2549999840558,738.6449999175966,TRUE,3,TRUE,bed,bed,TRUE,1852.0500001031905,738.6449999175966,0.7148853879319372,-7.104618886987079,0.362628400881834,-7.023483223484712,0.7084025854222327,-0.34577418454039865,0.362628400881834,16,-0.5563643038397085,late,first
w552e172,FALSE,left,barracuda,fellow,right,1832.979999948293,2416.1449999082834,fellow,fellow,3215.31999995932,correct,v3.4,old,TRUE,2416.1449999082834,648.6100000329316,1184.3699999153614,FALSE,2,FALSE,fellow,fellow,TRUE,648.6100000329316,1184.3699999153614,0.3538554703549566,-7.324023706517687,-0.572404595492402,-7.3343884351342545,-0.6165757457692651,0.044171150276863136,-0.6165757457692651,17,-1.1471467775810773,late,second
w552e172,FALSE,left,flower,permit,right,2065.665000118315,3853.300000075251,permit,permit,4910.06000014022,correct,v3.4,old,TRUE,3853.300000075251,783.1850000657141,659.5850000157952,FALSE,3,TRUE,flower,permit,FALSE,1406.08000010252,659.5850000157952,0.680691205990315,-7.223433138478631,-0.14371984534987509,-7.619589300964942,-1.832010396278351,1.6882905509284758,-1.832010396278351,18,0.25499510688869126,late,first
w552e172,FALSE,left,tread,cookie,right,2454.8750000540167,3018.510000081733,cookie,cookie,3754.6050001401454,correct,v3.4,old,TRUE,3018.510000081733,776.0850000195205,1678.7900000344962,FALSE,2,FALSE,cookie,cookie,TRUE,776.0850000195205,1678.7900000344962,0.3161403330118412,-6.91506163516606,1.1704606332542238,-7.418492392224665,-0.9749998459026062,2.14546047915683,-0.9749998459026062,19,-0.5594570736982616,late,second
wf65e4d0,FALSE,left,critic,house,left,1787,2871,critic,critic,3942,correct,v3.5,old,TRUE,2871,1787,NA,TRUE,1,TRUE,critic,critic,TRUE,1787,0,1,-6.772179952257683,0.760984132496527,-7.128057227589868,-1.3273167143356384,2.0883008468321655,0.760984132496527,1,1.9740654249424499,early,first
wf65e4d0,FALSE,left,fellow,pizza,left,1323,1879.0000000001164,fellow,fellow,3254.0000000001164,correct,v3.5,old,TRUE,1879.0000000001164,1323,NA,TRUE,1,TRUE,fellow,fellow,TRUE,1323,0,1,-6.96900212883126,-0.39397558677830097,-6.982035107612472,-0.47045358217754335,0.07647799539924238,-0.39397558677830097,2,0.2894151881720556,early,first
wf65e4d0,FALSE,left,dandelion,department,left,1150.9999999998836,1934.9999999998836,dandelion,dandelion,3818.9999999998836,correct,v3.5,old,TRUE,1934.9999999998836,1150.9999999998836,NA,TRUE,1,TRUE,dandelion,dandelion,TRUE,1150.9999999998836,0,1,-7.017803772021391,-0.6803454110544453,-6.9529930591301685,-0.30003378118653207,-0.3803116298679133,-0.6803454110544453,3,0.38451641121516134,early,first
wf65e4d0,FALSE,left,seagull,suburb,left,1126,1768.0000000001164,seagull,seagull,3455,correct,v3.5,old,TRUE,1768.0000000001164,1126,NA,TRUE,1,TRUE,seagull,seagull,TRUE,1126,0,1,-6.746832616800802,0.9097232225385494,-7.029730644469901,-0.7503327341029183,1.6600559566414677,0.9097232225385494,4,0.10091097821083006,early,first
wf65e4d0,FALSE,left,neck,cue,left,1597.0000000001164,3613,neck,neck,4475,correct,v3.5,old,TRUE,3613,1597.0000000001164,NA,TRUE,1,TRUE,neck,neck,TRUE,1597.0000000001164,0,1,-7.199691798737975,-1.7476709936343529,-7.277093408342725,-2.2018664651853106,0.45419547155095774,-1.7476709936343529,5,3.2341566302688403,early,first
wf65e4d0,FALSE,left,tomato,keeper,left,1049,1619,tomato,tomato,2507,correct,v3.5,old,TRUE,1619,1049,NA,TRUE,1,TRUE,tomato,tomato,TRUE,1049,0,1,-6.753697281315007,0.8694411204997176,-6.789072632133321,0.6618572701346893,0.20758385036502824,0.8694411204997176,6,-0.1521262045301118,early,first
wf65e4d0,FALSE,left,captive,parrot,left,1092,1788,captive,captive,3625,correct,v3.5,old,TRUE,1788,1092,NA,TRUE,1,TRUE,captive,captive,TRUE,1092,0,1,-6.840945906020061,0.35746300476744514,-6.942734421304946,-0.23983571982462212,0.5972987245920672,0.35746300476744514,7,0.1348757007261685,early,first
wf65e4d0,FALSE,left,tread,bug,left,919,1500,tread,tread,2476,correct,v3.5,old,TRUE,1500,919,NA,TRUE,1,TRUE,tread,tread,TRUE,919,0,1,-6.624666480087465,1.626598573780181,-6.84506071228163,0.33331717136865907,1.2932814024115218,1.626598573780181,8,-0.3542163034975518,early,first
wf65e4d0,FALSE,left,major,pig,left,965,1507,major,major,2745,correct,v3.5,old,TRUE,1507,965,NA,TRUE,1,TRUE,major,major,TRUE,965,0,1,-6.796091631688742,0.6206695244383156,-6.7590980615194445,0.8377491450456676,-0.21707962060735198,0.6206695244383156,9,-0.34232865061711415,early,first
wf65e4d0,FALSE,left,community,strawberry,left,855.9999999998836,1538,community,community,3282.9999999998836,correct,v3.5,old,TRUE,1538,855.9999999998836,NA,TRUE,1,TRUE,community,community,TRUE,855.9999999998836,0,1,-6.567309235684884,1.9631729783865588,-6.693739596839925,1.2212750024089658,0.741897975977593,1.9631729783865588,10,-0.28968333071803315,early,first
wf65e4d0,FALSE,left,cauliflower,tart,left,637,1159,cauliflower,cauliflower,4880,correct,v3.5,old,TRUE,1159,637,NA,TRUE,1,TRUE,cauliflower,cauliflower,TRUE,637,0,1,-6.849083712768138,0.30971005761030346,-7.019156409131958,-0.6882827350120326,0.9979927926223361,0.30971005761030346,11,-0.9333148223874428,late,first
wf65e4d0,FALSE,left,finger,ozone,left,751,1370,finger,finger,2045,correct,v3.5,old,TRUE,1370,751,NA,TRUE,1,TRUE,finger,finger,TRUE,751,0,1,-6.916448335940135,-0.08558801104355798,-6.887234347978325,0.08584073709172972,-0.1714287481352877,-0.08558801104355798,12,-0.5749869998485366,late,first
wf65e4d0,FALSE,left,refrigerator,roost,left,822,1312,refrigerator,refrigerator,6556,correct,v3.5,old,TRUE,1312,822,NA,TRUE,1,TRUE,refrigerator,refrigerator,TRUE,822,0,1,-6.882189016046378,0.1154469291032851,-6.929977677158443,-0.16497867934880853,0.28042560845209363,0.1154469291032851,13,-0.6734846951435914,late,first
wf65e4d0,FALSE,left,editorial,handkerchief,left,1003.0000000001164,1550,editorial,editorial,3368,correct,v3.5,old,TRUE,1550,1003.0000000001164,NA,TRUE,1,TRUE,editorial,editorial,TRUE,1003.0000000001164,0,1,-6.978831341705359,-0.45165376684617414,-6.6933875142963135,1.2233410356314924,-1.6749948024776666,-0.45165376684617414,14,-0.26930449720871147,late,first
wf65e4d0,FALSE,left,villain,frog,left,959,1387,villain,villian,2671,other,v3.5,old,FALSE,1387,959,NA,TRUE,1,TRUE,villain,villain,TRUE,959,0,1,-6.880776319651686,0.12373668313323545,-6.867715734676653,0.20037667268588297,-0.07663998955264752,0.12373668313323545,15,-0.5461169857103308,late,first
wf65e4d0,FALSE,left,gravel,consumer,left,621.0000000001164,1387,gravel,gravel,2377,correct,v3.5,old,TRUE,1387,621.0000000001164,NA,TRUE,1,TRUE,gravel,gravel,TRUE,621.0000000001164,0,1,-7.061583452554671,-0.9372461750786503,-6.682817463233213,1.2853664812448116,-2.222612656323462,-0.9372461750786503,16,-0.5461169857103308,late,first
wf65e4d0,FALSE,left,goat,electron,left,820.9999999998836,1445.9999999998836,goat,goat,2194.9999999998836,correct,v3.5,old,TRUE,1445.9999999998836,820.9999999998836,NA,TRUE,1,TRUE,goat,goat,TRUE,820.9999999998836,0,1,-6.886808969161439,0.08833687552230775,-6.654641155910917,1.4507060814955732,-1.3623692059732655,0.08833687552230775,17,-0.445921054289697,late,first
wf65e4d0,FALSE,left,volunteer,baby,left,769,1476,volunteer,volunteer,3900,correct,v3.5,old,TRUE,1476,769,NA,TRUE,1,TRUE,volunteer,volunteer,TRUE,769,0,1,-7.1618550998289265,-1.525643862794528,-6.882232387608092,0.1151924231953922,-1.6408362859899202,-1.525643862794528,18,-0.39497397051619515,late,first
wf65e4d0,FALSE,left,stranger,antelope,left,611.0000000001164,1358,stranger,stranger,3560,correct,v3.5,old,TRUE,1358,611.0000000001164,NA,TRUE,1,TRUE,stranger,stranger,TRUE,611.0000000001164,0,1,-7.018560863495762,-0.684788051471941,-7.242125598247331,-1.9966740786641015,1.3118860271921604,-0.684788051471941,19,-0.5953658333578583,late,first
wb9d87ae,FALSE,left,chimney,society,left,2717.050000006566,3227.150000020629,chimney,chimney,7835.900000005495,correct,v3.5,old,TRUE,3227.150000020629,397.5600000121631,489.69499999657273,TRUE,3,TRUE,chimney,chimney,TRUE,2227.355000009993,489.69499999657273,0.8197696030638415,-6.860353091106048,0.43264668821322244,-6.839502722390275,0.5268332040381886,-0.09418651582496612,0.43264668821322244,1,0.2934321190002629,early,first
wb9d87ae,FALSE,left,parrot,application,left,2097.299999993993,2928.4549999865703,parrot,parrot,4047.2700000100303,correct,v3.5,old,TRUE,2928.4549999865703,388.8300000107847,510.08499998715706,TRUE,3,TRUE,parrot,parrot,TRUE,1587.215000006836,510.08499998715706,0.7567896819774863,-6.957795315929917,-0.0075250792745378435,-6.693335912175502,1.1871065436153538,-1.1946316228898917,-0.0075250792745378435,2,0.07959268418107693,early,first
wb9d87ae,FALSE,left,ear,enemy,left,1999.050000013085,2309.9999999976717,ear,ear,2757.8600000124425,correct,v3.5,old,TRUE,2309.9999999976717,459.2500000144355,339.5549999841023,TRUE,3,TRUE,ear,ear,TRUE,1659.4950000289828,339.5549999841023,0.830141817372312,-6.84248927171631,0.5133421872032743,-6.710766080749039,1.1083699576795183,-0.595027770476244,0.5133421872032743,3,-0.3631668787297386,early,first
wb9d87ae,FALSE,left,antelope,scenery,left,4496.240000007674,4956.2150000128895,antelope,antelope,6416.615000023739,correct,v3.5,old,TRUE,4956.2150000128895,1228.0250000185333,1678.2550000061747,TRUE,3,TRUE,antelope,antelope,TRUE,2817.9850000014994,1678.2550000061747,0.6267425671220153,-7.155668277971916,-0.9013684987725936,-6.870003300331036,0.3890541936979574,-1.290422692470551,-0.9013684987725936,4,1.5312910798861874,early,first
wb9d87ae,FALSE,left,goddess,seagull,left,1398.3149999985471,1648.7049999996088,goddess,goddess,3147.224999993341,correct,v3.5,old,TRUE,1648.7049999996088,1398.3149999985471,NA,TRUE,1,TRUE,goddess,goddess,TRUE,1398.3149999985471,0,1,-6.863868269461908,0.416767717133381,-6.795718331671424,0.7246186372621091,-0.30785092012872806,0.416767717133381,5,-0.8365961260630219,early,first
wb9d87ae,FALSE,left,hero,refrigerator,left,1729.029999987688,2028.9749999938067,hero,hero,2758.094999997411,correct,v3.5,old,TRUE,2028.9749999938067,1729.029999987688,NA,TRUE,1,TRUE,hero,hero,TRUE,1729.029999987688,0,1,-6.913688524506971,0.19171672143295654,-7.156231249739056,-0.9039115880568916,1.0956283094898482,0.19171672143295654,6,-0.5643561425742489,early,first
wb9d87ae,FALSE,left,elephant,traitor,left,1419.7550000099,1789.775000012014,elephant,elephant,2938.155000010738,correct,v3.5,old,TRUE,1789.775000012014,1419.7550000099,NA,TRUE,1,TRUE,elephant,elephant,TRUE,1419.7550000099,0,1,-7.038176143935855,-0.37062609836002103,-6.875199757816468,0.3655804493312637,-0.7362065476912847,-0.37062609836002103,7,-0.7356023730067083,early,first
wb9d87ae,FALSE,left,jeans,well,left,1469.5950000023004,1739.415000018198,jeans,jeans,2318.395000009332,correct,v3.5,old,TRUE,1739.415000018198,1469.5950000023004,NA,TRUE,1,TRUE,jeans,jeans,TRUE,1469.5950000023004,0,1,-7.030346155514103,-0.33525601265804444,-7.449694835072442,-2.229562611347669,1.8943065986896246,-0.33525601265804444,8,-0.7716557181746686,early,first
wb9d87ae,FALSE,left,neck,tart,left,1191.7850000027101,1499.1999999911059,neck,neck,2178.0800000124145,correct,v3.5,old,TRUE,1499.1999999911059,1191.7850000027101,NA,TRUE,1,TRUE,neck,neck,TRUE,1191.7850000027101,0,1,-7.031218562538101,-0.33919690114264506,-6.8633607260470635,0.41906042219417666,-0.7582573233368217,-0.33919690114264506,9,-0.9436285996592163,early,first
wb9d87ae,FALSE,left,saxophone,lover,right,4919.545000011567,6398.829999990994,lover,lovers,7558.055000001332,correct,v3.5,old,TRUE,6398.829999990994,2638.1249999976717,511.83500001206994,FALSE,3,TRUE,saxophone,lover,FALSE,4407.709999999497,511.83500001206994,0.8959588742432752,-6.6551446004590575,1.3596265903537093,-6.805970205681988,0.6783082670766094,0.6813183232770998,0.6783082670766094,10,2.564076952504821,early,first
wb9d87ae,FALSE,left,crook,cookie,left,1248.905000014929,1498.9500000083353,crook,crook,4187.480000022333,correct,v3.5,old,TRUE,1498.9500000083353,1248.905000014929,NA,TRUE,1,TRUE,crook,crook,TRUE,1248.905000014929,0,1,-6.7905728778818615,0.7478619847243825,-6.856558058613023,0.44978983291407365,0.2980721518103088,0.7478619847243825,11,-0.9438075777305411,late,first
wb9d87ae,FALSE,left,captive,gravel,right,3549.2899999953806,3758.990000002086,gravel,gravel,5448.0749999929685,correct,v3.5,old,TRUE,3758.990000002086,1839.1349999874365,1710.1550000079442,FALSE,2,FALSE,gravel,gravel,TRUE,1839.1349999874365,1710.1550000079442,0.5181698311464631,-6.833194411373346,0.5553294787815389,-7.282241845326399,-1.4731340856150488,2.0284635643965876,-1.4731340856150488,12,0.6741829350410501,late,second
wb9d87ae,FALSE,left,tiger,rebel,left,1598.8699999870732,1848.904999991646,tiger,tiger,2497.929999983171,correct,v3.5,old,TRUE,1848.904999991646,1598.8699999870732,NA,TRUE,1,TRUE,tiger,tiger,TRUE,1598.8699999870732,0,1,-6.768743875535461,0.8464692421292445,-7.147709954293762,-0.8654186894780644,1.711887931607309,0.8464692421292445,13,-0.6932704766741241,late,first
wb9d87ae,FALSE,left,donor,tractor,right,3739.4599999825004,4089.080000005197,tractor,tractor,5278.044999984559,correct,v3.5,old,TRUE,4089.080000005197,1069.6049999969546,2669.854999985546,FALSE,2,FALSE,tractor,tractor,TRUE,1069.6049999969546,2669.854999985546,0.2860319404411225,-7.204902452223041,-1.1237720157293358,-7.1342632130886905,-0.8046762766905332,-0.3190957390388026,-0.8046762766905332,14,0.9104984375840511,late,second
wb9d87ae,FALSE,left,winner,finger,left,1419.0750000125263,1689.089999999851,winner,winner,2587.9300000087824,correct,v3.5,old,TRUE,1689.089999999851,1419.0750000125263,NA,TRUE,1,TRUE,winner,winner,TRUE,1419.0750000125263,0,1,-6.953630891840612,0.01128670294073335,-6.924343004433401,0.14358767604881714,-0.13230097310808378,0.01128670294073335,15,-0.8076840064284786,late,first
wb9d87ae,FALSE,left,fellow,pitchfork,left,1179.4949999894015,1409.270000003744,fellow,fellow,2508.369999995921,correct,v3.5,old,TRUE,1409.270000003744,1179.4949999894015,NA,TRUE,1,TRUE,fellow,fellow,TRUE,1179.4949999894015,0,1,-6.7520175765899335,0.9220262666500755,-7.160388613559869,-0.9226914772107421,1.8447177438608175,0.9220262666500755,16,-1.0080105959041958,late,first
wb9d87ae,FALSE,left,volunteer,bed,right,4008.9549999975134,4449.169999978039,bed,bed,5028.334999980871,correct,v3.5,old,TRUE,4449.169999978039,1758.8399999949615,689.1750000067987,FALSE,4,FALSE,bed,bed,TRUE,2160.2449999772944,1848.710000020219,0.5388548886127768,-6.908384351676529,0.21567704391180426,-7.6900761599916665,-3.315427315812279,3.5311043597240834,-3.315427315812279,17,1.1682913101445336,late,second
wb9d87ae,FALSE,left,horse,suburb,right,2938.320000015665,3278.939999989234,suburb,subrub,4267.404999991413,correct,v3.5,old,TRUE,3278.939999989234,1159.3299999949522,1778.9900000207126,FALSE,2,FALSE,suburb,suburb,TRUE,1159.3299999949522,1778.9900000207126,0.3945553921930803,-6.87384279520433,0.3717102009094855,-6.753587689392643,0.9149336604542192,-0.5432234595447337,0.9149336604542192,18,0.3305092187887072,late,second
wb9d87ae,FALSE,left,department,cactus,left,2679.115000006277,2979.1750000149477,department,department,4308.149999997113,correct,v3.5,old,TRUE,2979.1750000149477,1109.4000000157394,540.2349999931175,TRUE,3,TRUE,department,department,TRUE,2138.8800000131596,540.2349999931175,0.7983531875295193,-7.0113725860980525,-0.24954748536907423,-7.296120129653552,-1.5358258904565598,1.2862784050874856,-0.24954748536907423,19,0.11590375781424996,late,first
w406409a,FALSE,left,antelope,roost,left,2950.749999843538,3749.3099998682737,antelope,follower,5611.0449999105185,intrusion,v3.5,old,FALSE,3749.3099998682737,2950.749999843538,NA,TRUE,1,TRUE,antelope,antelope,TRUE,2950.749999843538,0,1,-6.954607728214,-0.0324185997579497,-6.6380438796411365,1.569559479328287,-1.6019780790862368,-0.0324185997579497,1,0.48144677462029506,early,first
w406409a,FALSE,left,ear,follower,left,1951.060000108555,2830.2850001491606,ear,ear,3510.3349999990314,correct,v3.5,old,TRUE,2830.2850001491606,1951.060000108555,NA,TRUE,1,TRUE,ear,ear,TRUE,1951.060000108555,0,1,-6.867727435894194,0.40724096474503524,-7.2853449132530015,-1.7061211490533588,2.1133621137983942,0.40724096474503524,2,-0.24005793180918011,early,first
w406409a,FALSE,left,application,octopus,left,3041.105000069365,3663.3800000417978,application,application,5899.964999873191,correct,v3.5,old,TRUE,3663.3800000417978,3041.105000069365,NA,TRUE,1,TRUE,application,application,TRUE,3041.105000069365,0,1,-6.819825265514433,0.649650915328409,-6.826988221558234,0.6134026241373643,0.03624829119104467,0.649650915328409,3,0.41398517203360213,early,first
w406409a,FALSE,left,editorial,magazine,left,1628.7000000011176,2413.3900001179427,editorial,editoral,6156.05999995023,correct,v3.5,old,TRUE,2413.3900001179427,1628.7000000011176,NA,TRUE,1,TRUE,editorial,editorial,TRUE,1628.7000000011176,0,1,-7.133852174427269,-0.9394889267271261,-6.978474907574572,-0.15319896781837583,-0.7862899589087503,-0.9394889267271261,4,-0.5673522977963651,early,first
w406409a,FALSE,left,community,strawberry,left,1438.8050001580268,1933.320000069216,community,community,3712.9750000312924,correct,v3.5,old,TRUE,1933.320000069216,1438.8050001580268,NA,TRUE,1,TRUE,community,community,TRUE,1438.8050001580268,0,1,-6.801542096188306,0.742173282012793,-6.885815377592525,0.3157065516174825,0.42646673039531047,0.742173282012793,5,-0.9442438563030636,early,first
w406409a,FALSE,right,suburb,pig,right,1578.29499989748,2485.1500000804663,suburb,suburb,4616.780000040308,correct,v3.5,old,TRUE,2485.1500000804663,1578.29499989748,NA,TRUE,1,TRUE,suburb,suburb,TRUE,1578.29499989748,0,1,-7.117606218436808,-0.8572759213955059,-6.861414469954134,0.43918786296347184,-1.2964637843589777,-0.8572759213955059,6,-0.511015225657779,early,first
w406409a,FALSE,left,electron,hamburger,left,2800.3799999132752,3136.004999978468,electron,electron,5532.935000024736,correct,v3.5,old,TRUE,3136.004999978468,2800.3799999132752,NA,TRUE,1,TRUE,electron,electron,TRUE,2800.3799999132752,0,1,-7.07133229666563,-0.6231057574776392,-6.820333346143663,0.6470797625132555,-1.2701855199908947,-0.6231057574776392,7,-4.4418799327129145e-5,early,first
w406409a,FALSE,left,sand,rebel,right,6252.699999837205,6984.26999989897,rebel,rebel,7832.749999826774,correct,v3.5,old,TRUE,6984.26999989897,3804.0000000037253,2448.6999998334795,FALSE,2,FALSE,rebel,rebel,TRUE,3804.0000000037253,2448.6999998334795,0.6083771810742186,-7.313200993933578,-1.8470874369624792,-6.957400064174142,-0.04654927518964487,-1.8005381617728344,-0.04654927518964487,8,3.0211370614423165,early,second
w406409a,FALSE,left,patient,barracuda,right,3715.644999872893,4580.464999889955,barracuda,burracuda,8207.154999952763,correct,v3.5,old,TRUE,4580.464999889955,1092.6800000015646,2622.9649998713285,FALSE,2,FALSE,barracuda,barracuda,TRUE,1092.6800000015646,2622.9649998713285,0.2940754566270307,-7.081410331683867,-0.6741058677311113,-6.941283120308675,0.03501086154339906,-0.7091167292745103,0.03501086154339906,9,1.1339668306267343,early,second
w406409a,FALSE,right,villain,shoelace,right,1811.6699999663979,2275.874999817461,villain,villian,5284.400000004098,other,v3.5,old,FALSE,2275.874999817461,1811.6699999663979,NA,TRUE,1,TRUE,villain,villain,TRUE,1811.6699999663979,0,1,-6.670382396926564,1.405909725779497,-6.8084393955410025,0.7072693521492645,0.6986403736302326,1.405909725779497,10,-0.6753120594478684,early,first
w406409a,FALSE,right,elbow,department,right,2391.310000093654,3429.8000000417233,elbow,elbow,6517.185000004247,correct,v3.5,old,TRUE,3429.8000000417233,2391.310000093654,NA,TRUE,1,TRUE,elbow,elbow,TRUE,2391.310000093654,0,1,-7.3855572819144495,-2.2132479690382914,-6.968550597222259,-0.10297678450171273,-2.1102711845365785,-2.2132479690382914,11,0.23060706003517,late,first
w406409a,FALSE,right,atom,penguin,right,2314.7050000261515,2812.459999928251,atom,atom,5451.194999972358,correct,v3.5,old,TRUE,2812.459999928251,2314.7050000261515,NA,TRUE,1,TRUE,atom,atom,TRUE,2314.7050000261515,0,1,-6.731749628490614,1.0953595470935384,-6.87053141789718,0.39305135426618265,0.7023081928273558,1.0953595470935384,12,-0.25405191625511303,late,first
w406409a,FALSE,right,baby,grizzly,right,2028.1400000676513,2608.1149999517947,baby,baby,3390.5549999326468,correct,v3.5,old,TRUE,2608.1149999517947,2028.1400000676513,NA,TRUE,1,TRUE,baby,baby,TRUE,2028.1400000676513,0,1,-7.106653276739263,-0.801848327309578,-7.116178708289672,-0.8500519759775621,0.0482036486679841,-0.801848327309578,13,-0.4144783238755867,late,first
w406409a,FALSE,right,critic,flower,right,1718.7350001186132,1932.8950000926852,critic,critic,3243.0850001983345,correct,v3.5,old,TRUE,1932.8950000926852,1718.7350001186132,NA,TRUE,1,TRUE,critic,critic,TRUE,1718.7350001186132,0,1,-6.783937222093695,0.8312631212720211,-7.241627956850386,-1.484890562689549,2.31615368396157,0.8312631212720211,14,-0.9445775136936602,late,first
w406409a,FALSE,right,empire,frog,right,1734.2650000937283,2055.129999993369,empire,empire,3094.740000087768,correct,v3.5,old,TRUE,2055.129999993369,1734.2650000937283,NA,TRUE,1,TRUE,empire,empire,TRUE,1734.2650000937283,0,1,-6.796115331778765,0.7696355385643301,-7.0751161366630715,-0.6422539601482803,1.4118894987126103,0.7696355385643301,15,-0.8486137175556827,late,first
w406409a,FALSE,right,saxophone,cue,right,2195.4850000329316,2576.820000074804,saxophone,saxaphone,6609.554999973625,correct,v3.5,old,TRUE,2576.820000074804,2195.4850000329316,NA,TRUE,1,TRUE,saxophone,saxophone,TRUE,2195.4850000329316,0,1,-6.731642224175055,1.0959030689135438,-6.6305706950269405,1.6073776887886477,-0.5114746198751039,1.0959030689135438,16,-0.4390472852268665,late,first
w406409a,FALSE,right,tiger,rouge,right,1725.825000088662,2261.5149999037385,tiger,tiger,2905.5949999019504,correct,v3.5,old,TRUE,2261.5149999037385,1725.825000088662,NA,TRUE,1,TRUE,tiger,tiger,TRUE,1725.825000088662,0,1,-6.680248562972822,1.355981782958532,-6.739372785103198,1.0567824011501352,0.29919938180839667,1.355981782958532,17,-0.6865857544237876,late,first
w406409a,FALSE,right,cauliflower,vagrant,left,4681.344999931753,5155.299999983981,vagrant,vagrant,13778.799999970943,correct,v3.5,old,TRUE,5155.299999983981,2633.960000006482,2047.3849999252707,FALSE,2,FALSE,vagrant,vagrant,TRUE,2633.960000006482,2047.3849999252707,0.5626502639828684,-7.0159901182549875,-0.3430454882383922,-6.8310360123185685,0.5929186930251512,-0.9359641812635434,0.5929186930251512,18,1.5852561406182895,late,second
w406409a,FALSE,left,chimney,ozone,left,2394.1450000274926,2701.68499997817,chimney,chimney,6079.110000049695,correct,v3.5,old,TRUE,2701.68499997817,2394.1450000274926,NA,TRUE,1,TRUE,chimney,chimney,TRUE,2394.1450000274926,0,1,-7.2294678719811865,-1.4233541949453912,-6.893716835475867,0.27572105618267273,-1.6990752511280638,-1.4233541949453912,19,-0.3410187385321308,late,first
wbe97c02,FALSE,left,tiger,personnel,NA,NA,NA,NA,NA,NA,timeout,v3.5,old,FALSE,NA,3520,11637,NA,2,FALSE,personnel,NA,NA,3520,11637,0.23223593059312528,-7.67560389275798,-0.04040262498381765,-7.471244706518275,0.5796557408536313,-0.6200583658374489,NA,1,NA,early,second
wbe97c02,FALSE,left,carrot,permit,left,4353,4597,carrot,carrots,11795,correct,v3.5,old,TRUE,4597,1741,2612,TRUE,2,FALSE,permit,carrot,FALSE,1741,2612,0.39995405467493683,-7.329492096171666,1.0097557698369826,-8.158698274723047,-1.5061880322282766,2.515943802065259,1.0097557698369826,2,-0.5516617062829243,early,second
wbe97c02,FALSE,left,daisy,major,left,12401,13075,daisy,ffd,14581,other,v3.5,old,FALSE,13075,1132,1835,TRUE,6,FALSE,major,daisy,FALSE,2229,10172,0.17974356906701072,-7.483267847893556,0.5431756122596341,-7.759004903713776,-0.29345459447925337,0.8366302067388874,0.5431756122596341,3,2.6981562046832543,early,second
wbe97c02,FALSE,NA,NA,NA,right,NA,NA,barracuda,jjffff,NA,other,v3.5,old,FALSE,NA,NA,NA,NA,0,FALSE,NA,NA,NA,0,0,NA,NA,NA,NA,NA,NA,NA,4,NA,early,second
wbe97c02,FALSE,left,tomato,grizzly,left,4666,7124,tomato,tomatoes,8585,correct,v3.5,old,TRUE,7124,1302,3364,TRUE,2,FALSE,grizzly,tomato,FALSE,1302,3364,0.2790398628375482,-7.538048142932623,0.37696345978915324,-7.796969003535612,-0.40864372851899217,0.7856071883081455,0.37696345978915324,5,0.4169971591348079,early,second
wbe97c02,FALSE,left,jeans,electron,left,4854,6443,jeans,jeans,7429,correct,v3.5,old,TRUE,6443,1334,3520,TRUE,2,FALSE,electron,jeans,FALSE,1334,3520,0.27482488669138855,-7.29887632051314,1.1026489163256588,-8.118889165599867,-1.385400845693827,2.488049762019486,1.1026489163256588,6,0.15595375298147365,early,second
wbe97c02,FALSE,left,dandelion,traitor,right,3934,4972,traitor,rebel,6036,intrusion,v3.5,old,FALSE,4972,1161,2773,FALSE,2,FALSE,traitor,traitor,TRUE,1161,2773,0.2951194712760549,-7.576191932962059,0.2612291169994094,-8.287207137599237,-1.8961044190413188,2.157333536040728,-1.8961044190413188,7,-0.4079153372557579,early,second
wbe97c02,FALSE,left,department,frog,NA,NA,NA,NA,NA,NA,timeout,v3.5,old,FALSE,NA,887,14267,NA,2,FALSE,frog,NA,NA,887,14267,0.05853240068628745,-7.728997660273588,-0.20240783180040417,-8.074283975223096,-1.2500615836728504,1.0476537518724462,NA,8,NA,early,second
wbe97c02,FALSE,right,keeper,strawberry,right,8006,9106,keeper,keeper,10598,correct,v3.5,old,TRUE,9106,8006,NA,TRUE,1,TRUE,keeper,keeper,TRUE,8006,0,1,-8.163903267782487,-1.521980811354173,-7.064393739516146,1.8141064664638935,-3.3360872778180664,-1.521980811354173,9,1.176744634899725,early,first
wbe97c02,FALSE,left,walrus,tread,NA,NA,NA,NA,NA,NA,timeout,v3.5,old,FALSE,NA,1311,13838,NA,2,FALSE,tread,NA,NA,1311,13838,0.08654036570070632,-7.6716555738878265,-0.028422795784649527,-7.858805161568523,-0.596264494705543,0.5678416989208934,NA,10,NA,early,second
wbe97c02,FALSE,left,sand,rebel,right,3310,4154,rebel,rebel,5053,correct,v3.5,old,TRUE,4154,1316,1994,FALSE,2,FALSE,rebel,rebel,TRUE,1316,1994,0.397583081570997,-8.393157798450162,-2.2175756229321175,-8.013184590605029,-1.0646763055404789,-1.1528993173916386,-1.0646763055404789,11,-0.7214740835603503,late,second
wbe97c02,FALSE,left,apple,ghost,right,4298,6162,ghost,ghost,7827,correct,v3.5,old,TRUE,6162,1547,2751,FALSE,2,FALSE,ghost,ghost,TRUE,1547,2751,0.35993485342019543,-7.9354014862606315,-0.8286699607462746,-7.302493367956065,1.0916742174736795,-1.9203441782199542,1.0916742174736795,12,0.048239807123783604,late,second
wbe97c02,FALSE,right,atom,quill,right,3891,6142,atom,atom,7845,correct,v3.5,old,TRUE,6142,1966,1925,TRUE,2,FALSE,quill,atom,FALSE,1966,1925,0.5052685684913903,-7.1033369494682645,1.6959465561232259,-7.692702333636619,-0.09228202176875848,1.7882285778919844,1.6959465561232259,13,0.040573334109001394,late,second
wbe97c02,FALSE,left,empire,neck,right,2758,3485,neck,neck,4660,correct,v3.5,old,TRUE,3485,734,2024,FALSE,2,FALSE,neck,neck,TRUE,734,2024,0.2661348803480783,-7.691360502110585,-0.08821069089995012,-7.36622348566016,0.8983068755628622,-0.9865175664628123,0.8983068755628622,14,-0.9779176059048152,late,second
wbe97c02,FALSE,left,donor,bed,NA,NA,NA,NA,NA,NA,timeout,v3.5,old,FALSE,NA,1539,13647,NA,2,FALSE,bed,NA,NA,1539,13647,0.10134334255235085,-7.517814899665792,0.43835434701311693,-7.830054406397364,-0.5090301178417062,0.9473844648548231,NA,15,NA,late,second
wbe97c02,FALSE,left,tulip,well,NA,NA,NA,NA,NA,NA,timeout,v3.5,old,FALSE,NA,957,14225,NA,2,FALSE,well,NA,NA,957,14225,0.06303517323145831,-7.945124235590509,-0.8581703329676607,-7.388797221849482,0.8298145595092106,-1.6879848924768712,NA,16,NA,late,second
wbe97c02,FALSE,left,winner,eagle,left,3208,4281,winner,winner,5943,correct,v3.5,old,TRUE,4281,3208,NA,TRUE,1,TRUE,winner,winner,TRUE,3208,0,1,-7.454593613072199,0.6301778141773636,-7.46543289807999,0.5972896946245019,0.03288811955286175,0.6301778141773636,17,-0.6727919799164832,late,first
wbe97c02,FALSE,left,elbow,stable,left,3648,4311,elbow,elbow,5570,correct,v3.5,old,TRUE,4311,3648,NA,TRUE,1,TRUE,elbow,elbow,TRUE,3648,0,1,-7.19239723482837,1.4257234454448051,-7.393070784503717,0.8168478887935592,0.6088755566512459,1.4257234454448051,18,-0.6612922703943099,late,first
wbe97c02,FALSE,left,bug,scapegoat,right,3932,4618,scapegoat,scapegoat,6521,correct,v3.5,old,TRUE,4618,1230,2702,FALSE,2,FALSE,scapegoat,scapegoat,TRUE,1230,2702,0.3128179043743642,-7.550000083722466,0.34069936512769067,-7.213302613839029,1.3622931911700726,-1.021593826042382,1.3622931911700726,19,-0.543611909617403,late,second
